participant,language,gender,age,condition,block,trial,sound,visual,key,RT,logRT,RTinv,RTlag,trialCount,accuracy,congruent,item,m,upper_lim
ARF1,Afrikaans,female,21,size,1,1,high,small,k,932.3458215221763,6.837703798997783,1.0725633953798062,NA,1,1,TRUE,smallhigh,692.7585286310032,1258.8875893707602
ARF1,Afrikaans,female,21,size,1,2,high,big,k,677.9667707160115,6.519098275995984,1.4749985444624136,932.3458215221763,2,1,FALSE,bighigh,692.7585286310032,1258.8875893707602
ARF1,Afrikaans,female,21,size,1,3,low,big,s,725.7892554625869,6.587259690952925,1.3778104215150484,677.9667707160115,3,1,TRUE,biglow,692.7585286310032,1258.8875893707602
ARF1,Afrikaans,female,21,size,1,4,low,big,s,695.0290305539966,6.543953615273716,1.4387888218178684,725.7892554625869,4,1,TRUE,biglow,692.7585286310032,1258.8875893707602
ARF1,Afrikaans,female,21,size,1,5,high,small,k,664.8944551125169,6.49962831394292,1.5039981042265946,695.0290305539966,5,1,TRUE,smallhigh,692.7585286310032,1258.8875893707602
ARF1,Afrikaans,female,21,size,1,6,high,big,k,586.0255649313331,6.373363414788104,1.7064101975093424,664.8944551125169,6,1,FALSE,bighigh,692.7585286310032,1258.8875893707602
ARF1,Afrikaans,female,21,size,1,7,low,small,s,1163.5770397260785,7.059254194324336,0.8594188144477424,586.0255649313331,7,1,FALSE,smalllow,692.7585286310032,1258.8875893707602
ARF1,Afrikaans,female,21,size,1,8,low,small,s,624.9768594279885,6.437714624135744,1.6000592420577817,1163.5770397260785,8,1,FALSE,smalllow,692.7585286310032,1258.8875893707602
ARF1,Afrikaans,female,21,size,1,9,high,small,k,670.2631944790483,6.507670462829127,1.4919512338391705,624.9768594279885,9,1,TRUE,smallhigh,692.7585286310032,1258.8875893707602
ARF1,Afrikaans,female,21,size,1,10,low,big,s,772.7409629151225,6.649943886236786,1.294094719953185,670.2631944790483,10,1,TRUE,biglow,692.7585286310032,1258.8875893707602
ARF1,Afrikaans,female,21,size,1,11,low,big,s,944.8520923033357,6.851028399162696,1.0583667096108411,772.7409629151225,11,1,TRUE,biglow,692.7585286310032,1258.8875893707602
ARF1,Afrikaans,female,21,size,1,12,low,big,s,1085.1518278941512,6.989475189727772,0.9215300332125901,944.8520923033357,12,1,TRUE,biglow,692.7585286310032,1258.8875893707602
ARF1,Afrikaans,female,21,size,1,13,high,small,k,700.6800035014749,6.552051297080699,1.4271850131340236,1085.1518278941512,13,1,TRUE,smallhigh,692.7585286310032,1258.8875893707602
ARF1,Afrikaans,female,21,size,1,14,high,big,k,909.5421945676208,6.812941390029515,1.0994542155082547,700.6800035014749,14,1,FALSE,bighigh,692.7585286310032,1258.8875893707602
ARF1,Afrikaans,female,21,size,1,15,low,small,s,595.4730631783605,6.389356153814855,1.6793370881672822,909.5421945676208,15,1,FALSE,smalllow,692.7585286310032,1258.8875893707602
ARF1,Afrikaans,female,21,size,1,16,high,small,k,647.9439046233892,6.473804125665927,1.5433434790643485,595.4730631783605,16,1,TRUE,smallhigh,692.7585286310032,1258.8875893707602
ARF1,Afrikaans,female,21,height,2,1,high,high,k,1146.502542309463,7.04447131974815,0.8722178652876296,NA,17,1,TRUE,highhigh,692.7585286310032,1258.8875893707602
ARF1,Afrikaans,female,21,height,2,2,low,high,s,683.3339324221015,6.52698366017923,1.4634133511495093,1146.502542309463,18,1,FALSE,highlow,692.7585286310032,1258.8875893707602
ARF1,Afrikaans,female,21,height,2,4,low,high,s,659.2036141082644,6.491032461147381,1.5169819743065984,1771.2224312126637,20,1,FALSE,highlow,692.7585286310032,1258.8875893707602
ARF1,Afrikaans,female,21,height,2,5,low,low,s,877.9865857213736,6.777631315296733,1.1389695654386078,659.2036141082644,21,1,TRUE,lowlow,692.7585286310032,1258.8875893707602
ARF1,Afrikaans,female,21,height,2,6,high,low,k,653.5561932250857,6.482428517470168,1.5300903126100414,877.9865857213736,22,1,FALSE,lowhigh,692.7585286310032,1258.8875893707602
ARF1,Afrikaans,female,21,height,2,7,low,low,s,939.4928254187107,6.845340182229056,1.0644040837185986,653.5561932250857,23,1,TRUE,lowlow,692.7585286310032,1258.8875893707602
ARF1,Afrikaans,female,21,height,2,8,high,low,k,597.0815941691399,6.39205377770376,1.6748129732445283,939.4928254187107,24,1,FALSE,lowhigh,692.7585286310032,1258.8875893707602
ARF1,Afrikaans,female,21,height,2,9,high,high,k,652.993306517601,6.481566878868001,1.5314092656370064,597.0815941691399,25,1,TRUE,highhigh,692.7585286310032,1258.8875893707602
ARF1,Afrikaans,female,21,height,2,10,low,low,s,597.8228989988565,6.3932945545676185,1.6727361927330802,652.993306517601,26,1,TRUE,lowlow,692.7585286310032,1258.8875893707602
ARF1,Afrikaans,female,21,height,2,11,high,low,k,641.3203133270144,6.463529040886311,1.559283214985414,597.8228989988565,27,1,FALSE,lowhigh,692.7585286310032,1258.8875893707602
ARF1,Afrikaans,female,21,height,2,12,low,high,s,581.5445752814412,6.365687624706878,1.7195586417705733,641.3203133270144,28,1,FALSE,highlow,692.7585286310032,1258.8875893707602
ARF1,Afrikaans,female,21,height,2,13,high,low,k,569.359615445137,6.344512247574771,1.7563592022911205,581.5445752814412,29,1,FALSE,lowhigh,692.7585286310032,1258.8875893707602
ARF1,Afrikaans,female,21,height,2,14,low,high,s,698.4706921502948,6.548893219549449,1.431699298536671,569.359615445137,30,1,FALSE,highlow,692.7585286310032,1258.8875893707602
ARF1,Afrikaans,female,21,height,2,15,high,low,k,943.6880303546786,6.849795635206972,1.0596722304765878,698.4706921502948,31,1,FALSE,lowhigh,692.7585286310032,1258.8875893707602
ARF1,Afrikaans,female,21,height,2,16,low,high,s,577.662393450737,6.358989603646917,1.7311149407292685,943.6880303546786,32,1,FALSE,highlow,692.7585286310032,1258.8875893707602
ARF1,Afrikaans,female,21,height,3,2,low,high,s,709.5713252201676,6.564661020398951,1.409301594437624,1512.7069922164083,34,1,FALSE,highlow,692.7585286310032,1258.8875893707602
ARF1,Afrikaans,female,21,height,3,3,high,high,k,889.6769480779767,6.790858417145446,1.124003496055912,709.5713252201676,35,1,TRUE,highhigh,692.7585286310032,1258.8875893707602
ARF1,Afrikaans,female,21,height,3,4,low,high,s,663.1971104070544,6.497072246765535,1.5078473417747917,889.6769480779767,36,1,FALSE,highlow,692.7585286310032,1258.8875893707602
ARF1,Afrikaans,female,21,height,3,5,high,high,k,760.4624517261982,6.63392673733936,1.3149893170005538,663.1971104070544,37,1,TRUE,highhigh,692.7585286310032,1258.8875893707602
ARF1,Afrikaans,female,21,height,3,6,high,high,k,560.1394819095731,6.328185827553731,1.7852696199719706,760.4624517261982,38,1,TRUE,highhigh,692.7585286310032,1258.8875893707602
ARF1,Afrikaans,female,21,height,3,7,high,high,k,567.2967499122024,6.340882535270107,1.7627458647608416,560.1394819095731,39,1,TRUE,highhigh,692.7585286310032,1258.8875893707602
ARF1,Afrikaans,female,21,height,3,8,low,low,s,552.4769583716989,6.3144117282176415,1.8100302371836001,567.2967499122024,40,1,TRUE,lowlow,692.7585286310032,1258.8875893707602
ARF1,Afrikaans,female,21,height,3,9,low,low,s,557.4237313121557,6.323325689154395,1.7939673964831662,552.4769583716989,41,1,TRUE,lowlow,692.7585286310032,1258.8875893707602
ARF1,Afrikaans,female,21,height,3,10,low,low,s,523.4811827540398,6.260501084591084,1.9102883407174063,557.4237313121557,42,1,TRUE,lowlow,692.7585286310032,1258.8875893707602
ARF1,Afrikaans,female,21,height,3,11,high,low,k,593.835717998445,6.3866027120841915,1.683967416730259,523.4811827540398,43,1,FALSE,lowhigh,692.7585286310032,1258.8875893707602
ARF1,Afrikaans,female,21,height,3,12,low,low,s,700.9227629750967,6.552397699758912,1.4266907180406827,593.835717998445,44,1,TRUE,lowlow,692.7585286310032,1258.8875893707602
ARF1,Afrikaans,female,21,height,3,13,high,low,k,603.2520337030292,6.4023350757436015,1.6576819374508454,700.9227629750967,45,1,FALSE,lowhigh,692.7585286310032,1258.8875893707602
ARF1,Afrikaans,female,21,height,3,14,high,low,k,606.4986987039447,6.407702582798859,1.6488081543075799,603.2520337030292,46,1,FALSE,lowhigh,692.7585286310032,1258.8875893707602
ARF1,Afrikaans,female,21,height,3,15,low,high,s,683.6726116016507,6.527479165029532,1.4626884023586728,606.4986987039447,47,1,FALSE,highlow,692.7585286310032,1258.8875893707602
ARF1,Afrikaans,female,21,height,3,16,high,high,k,641.1189995706081,6.463215086446462,1.5597728357290204,683.6726116016507,48,1,TRUE,highhigh,692.7585286310032,1258.8875893707602
ARF1,Afrikaans,female,21,height,4,1,high,high,k,956.2246948480606,6.862992921886608,1.0457793083443585,NA,49,1,TRUE,highhigh,692.7585286310032,1258.8875893707602
ARF1,Afrikaans,female,21,height,4,2,high,low,k,639.616652391851,6.460869016255416,1.563436468172761,956.2246948480606,50,1,FALSE,lowhigh,692.7585286310032,1258.8875893707602
ARF1,Afrikaans,female,21,height,4,3,low,low,s,626.7870962619781,6.440606923578793,1.595438077720142,639.616652391851,51,1,TRUE,lowlow,692.7585286310032,1258.8875893707602
ARF1,Afrikaans,female,21,height,4,4,high,low,k,620.1599529013038,6.429977433316304,1.6124872225652185,626.7870962619781,52,1,FALSE,lowhigh,692.7585286310032,1258.8875893707602
ARF1,Afrikaans,female,21,height,4,5,low,high,s,505.48143591731787,6.225511313587003,1.9783120188880112,620.1599529013038,53,1,FALSE,highlow,692.7585286310032,1258.8875893707602
ARF1,Afrikaans,female,21,height,4,6,high,low,k,1117.145192809403,7.0185317752319625,0.8951387934501105,505.48143591731787,54,1,FALSE,lowhigh,692.7585286310032,1258.8875893707602
ARF1,Afrikaans,female,21,height,4,7,low,high,s,517.5223182886839,6.249052651337468,1.9322838159072027,1117.145192809403,55,1,FALSE,highlow,692.7585286310032,1258.8875893707602
ARF1,Afrikaans,female,21,height,4,8,low,low,s,629.2660096660256,6.444554076148705,1.5891530523486186,517.5223182886839,56,1,TRUE,lowlow,692.7585286310032,1258.8875893707602
ARF1,Afrikaans,female,21,height,4,9,high,high,k,530.0112217664719,6.272898179466306,1.8867525043471811,629.2660096660256,57,1,TRUE,highhigh,692.7585286310032,1258.8875893707602
ARF1,Afrikaans,female,21,height,4,10,high,low,k,728.676320053637,6.591229627995675,1.372351443953045,530.0112217664719,58,1,FALSE,lowhigh,692.7585286310032,1258.8875893707602
ARF1,Afrikaans,female,21,height,4,11,low,high,s,476.3388196006417,6.166129406901465,2.0993460092931144,728.676320053637,59,1,FALSE,highlow,692.7585286310032,1258.8875893707602
ARF1,Afrikaans,female,21,height,4,12,high,high,k,725.740703754127,6.587192793665453,1.3779025963779883,476.3388196006417,60,1,TRUE,highhigh,692.7585286310032,1258.8875893707602
ARF1,Afrikaans,female,21,height,4,13,low,high,s,679.8204286023974,6.521828687711346,1.4709766843221244,725.740703754127,61,1,FALSE,highlow,692.7585286310032,1258.8875893707602
ARF1,Afrikaans,female,21,height,4,14,low,low,s,697.0251863822341,6.546821545519756,1.4346683872218369,679.8204286023974,62,1,TRUE,lowlow,692.7585286310032,1258.8875893707602
ARF1,Afrikaans,female,21,height,4,15,low,high,s,642.8964752703905,6.465983708585389,1.555460386649994,697.0251863822341,63,1,FALSE,highlow,692.7585286310032,1258.8875893707602
ARF1,Afrikaans,female,21,height,4,16,high,low,k,602.0433660596609,6.400329479358262,1.6610099145264938,642.8964752703905,64,1,FALSE,lowhigh,692.7585286310032,1258.8875893707602
ARF1,Afrikaans,female,21,size,5,1,low,small,s,994.2748174071312,6.9020136447087745,1.0057581490475629,NA,65,1,FALSE,smalllow,692.7585286310032,1258.8875893707602
ARF1,Afrikaans,female,21,size,5,2,high,big,k,641.8180698528886,6.464304883238729,1.5580739261972016,994.2748174071312,66,1,FALSE,bighigh,692.7585286310032,1258.8875893707602
ARF1,Afrikaans,female,21,size,5,3,low,big,s,667.7980981767178,6.503985879611995,1.497458592245605,641.8180698528886,67,1,TRUE,biglow,692.7585286310032,1258.8875893707602
ARF1,Afrikaans,female,21,size,5,4,low,big,s,882.9759899526834,6.7832980087877015,1.1325336264846655,667.7980981767178,68,1,TRUE,biglow,692.7585286310032,1258.8875893707602
ARF1,Afrikaans,female,21,size,5,5,low,big,s,522.9060584679246,6.259401827411005,1.9123893934790597,882.9759899526834,69,1,TRUE,biglow,692.7585286310032,1258.8875893707602
ARF1,Afrikaans,female,21,size,5,6,high,big,k,580.0055181607604,6.3630376175654835,1.7241215276211037,522.9060584679246,70,1,FALSE,bighigh,692.7585286310032,1258.8875893707602
ARF1,Afrikaans,female,21,size,5,7,low,small,s,690.3996216133237,6.537270591700302,1.4484364832981846,580.0055181607604,71,1,FALSE,smalllow,692.7585286310032,1258.8875893707602
ARF1,Afrikaans,female,21,size,5,9,high,small,k,761.7563810199499,6.635626794620953,1.312755659048179,643.2568645104766,73,1,TRUE,smallhigh,692.7585286310032,1258.8875893707602
ARF1,Afrikaans,female,21,size,5,10,high,small,k,666.6387729346752,6.5022483294006435,1.5000627635230441,761.7563810199499,74,1,TRUE,smallhigh,692.7585286310032,1258.8875893707602
ARF1,Afrikaans,female,21,size,5,11,high,big,k,619.1158890724182,6.4282924749873525,1.6152064866211657,666.6387729346752,75,1,FALSE,bighigh,692.7585286310032,1258.8875893707602
ARF1,Afrikaans,female,21,size,5,12,low,small,s,552.2701190784574,6.314037272742936,1.8107081398295544,619.1158890724182,76,1,FALSE,smalllow,692.7585286310032,1258.8875893707602
ARF1,Afrikaans,female,21,size,5,13,high,big,k,712.6087825745344,6.568932577786406,1.403294520714676,552.2701190784574,77,1,FALSE,bighigh,692.7585286310032,1258.8875893707602
ARF1,Afrikaans,female,21,size,5,14,high,big,k,623.2325406745076,6.434919708653095,1.6045375277063152,712.6087825745344,78,1,FALSE,bighigh,692.7585286310032,1258.8875893707602
ARF1,Afrikaans,female,21,size,5,15,low,small,s,572.7965412661433,6.350530577335857,1.7458205976410768,623.2325406745076,79,1,FALSE,smalllow,692.7585286310032,1258.8875893707602
ARF1,Afrikaans,female,21,size,5,16,low,small,s,677.3549374192953,6.518195415317806,1.4763308640075379,572.7965412661433,80,1,FALSE,smalllow,692.7585286310032,1258.8875893707602
ARF1,Afrikaans,female,21,height,6,1,high,high,k,845.8704594522715,6.740366226667164,1.182214118988778,NA,81,1,TRUE,highhigh,692.7585286310032,1258.8875893707602
ARF1,Afrikaans,female,21,height,6,2,high,low,k,586.9235787540674,6.374894621836637,1.703799329587029,845.8704594522715,82,1,FALSE,lowhigh,692.7585286310032,1258.8875893707602
ARF1,Afrikaans,female,21,height,6,3,low,low,s,640.494929626584,6.462241205031582,1.5612926094247328,586.9235787540674,83,1,TRUE,lowlow,692.7585286310032,1258.8875893707602
ARF1,Afrikaans,female,21,height,6,4,low,high,s,782.0542529225349,6.66192411527762,1.278683667102381,640.494929626584,84,1,FALSE,highlow,692.7585286310032,1258.8875893707602
ARF1,Afrikaans,female,21,height,6,5,low,high,s,637.1365552768111,6.456984005088733,1.5695222503212656,782.0542529225349,85,1,FALSE,highlow,692.7585286310032,1258.8875893707602
ARF1,Afrikaans,female,21,height,6,6,low,high,s,550.6505370140076,6.3111003738470295,1.8160338232350834,637.1365552768111,86,1,FALSE,highlow,692.7585286310032,1258.8875893707602
ARF1,Afrikaans,female,21,height,6,7,low,high,s,644.7086865082383,6.468798565947285,1.5510881440360764,550.6505370140076,87,1,FALSE,highlow,692.7585286310032,1258.8875893707602
ARF1,Afrikaans,female,21,height,6,8,high,high,k,571.0684070363641,6.347509004645565,1.7511036990990865,644.7086865082383,88,1,TRUE,highhigh,692.7585286310032,1258.8875893707602
ARF1,Afrikaans,female,21,height,6,9,high,low,k,641.7260970920324,6.46416157260964,1.5582972307523066,571.0684070363641,89,1,FALSE,lowhigh,692.7585286310032,1258.8875893707602
ARF1,Afrikaans,female,21,height,6,10,high,high,k,620.9979681298137,6.431327809995459,1.610311226961953,641.7260970920324,90,1,TRUE,highhigh,692.7585286310032,1258.8875893707602
ARF1,Afrikaans,female,21,height,6,11,high,high,k,537.4526958912611,6.286840748484752,1.8606288658422188,620.9979681298137,91,1,TRUE,highhigh,692.7585286310032,1258.8875893707602
ARF1,Afrikaans,female,21,height,6,12,high,low,k,633.6672632023692,6.451523995222879,1.5781152949992905,537.4526958912611,92,1,FALSE,lowhigh,692.7585286310032,1258.8875893707602
ARF1,Afrikaans,female,21,height,6,13,low,low,s,582.272064872086,6.366937803919474,1.7174102285323969,633.6672632023692,93,1,TRUE,lowlow,692.7585286310032,1258.8875893707602
ARF1,Afrikaans,female,21,height,6,14,low,low,s,616.0081699490547,6.4232602263498775,1.6233550929733649,582.272064872086,94,1,TRUE,lowlow,692.7585286310032,1258.8875893707602
ARF1,Afrikaans,female,21,height,6,15,low,low,s,567.818583920598,6.341801973197874,1.7611258742102687,616.0081699490547,95,1,TRUE,lowlow,692.7585286310032,1258.8875893707602
ARF1,Afrikaans,female,21,height,6,16,high,low,k,704.6099482104182,6.55764438475498,1.4192249237181778,567.818583920598,96,1,FALSE,lowhigh,692.7585286310032,1258.8875893707602
ARF1,Afrikaans,female,21,size,7,1,high,big,k,702.5699764490128,6.554745006850671,1.42334576415332,NA,97,1,FALSE,bighigh,692.7585286310032,1258.8875893707602
ARF1,Afrikaans,female,21,size,7,2,high,small,k,549.1955569013953,6.308454583732532,1.820845029486544,702.5699764490128,98,1,TRUE,smallhigh,692.7585286310032,1258.8875893707602
ARF1,Afrikaans,female,21,size,7,3,low,big,s,562.5212909653783,6.332428983967376,1.777710490359995,549.1955569013953,99,1,TRUE,biglow,692.7585286310032,1258.8875893707602
ARF1,Afrikaans,female,21,size,7,4,high,small,k,654.2971041053534,6.483561535922682,1.52835767379307,562.5212909653783,100,1,TRUE,smallhigh,692.7585286310032,1258.8875893707602
ARF1,Afrikaans,female,21,size,7,5,low,small,s,491.38795025646687,6.197233938533817,2.03505193702466,654.2971041053534,101,1,FALSE,smalllow,692.7585286310032,1258.8875893707602
ARF1,Afrikaans,female,21,size,7,6,high,big,k,588.5936869308352,6.377736110174125,1.6989648754379325,491.38795025646687,102,1,FALSE,bighigh,692.7585286310032,1258.8875893707602
ARF1,Afrikaans,female,21,size,7,7,high,small,k,674.9087879434228,6.51457755276908,1.481681699607428,588.5936869308352,103,1,TRUE,smallhigh,692.7585286310032,1258.8875893707602
ARF1,Afrikaans,female,21,size,7,8,low,big,s,591.6757481172681,6.382958762054207,1.690114903614071,674.9087879434228,104,1,TRUE,biglow,692.7585286310032,1258.8875893707602
ARF1,Afrikaans,female,21,size,7,9,low,big,s,661.3485841080546,6.494281059558076,1.5120619050673203,591.6757481172681,105,1,TRUE,biglow,692.7585286310032,1258.8875893707602
ARF1,Afrikaans,female,21,size,7,10,low,small,s,607.2052670642734,6.408866900392074,1.646889535123464,661.3485841080546,106,1,FALSE,smalllow,692.7585286310032,1258.8875893707602
ARF1,Afrikaans,female,21,size,7,11,low,small,s,535.5331180617213,6.283262733095401,1.8672981488415585,607.2052670642734,107,1,FALSE,smalllow,692.7585286310032,1258.8875893707602
ARF1,Afrikaans,female,21,size,7,12,low,small,s,559.4415972009301,6.326939138391054,1.7874966841996165,535.5331180617213,108,1,FALSE,smalllow,692.7585286310032,1258.8875893707602
ARF1,Afrikaans,female,21,size,7,13,high,big,k,584.1063810512424,6.370083125573549,1.7120169072631175,559.4415972009301,109,1,FALSE,bighigh,692.7585286310032,1258.8875893707602
ARF1,Afrikaans,female,21,size,7,14,high,big,k,657.6112676411867,6.488613978086033,1.5206552095540298,584.1063810512424,110,1,FALSE,bighigh,692.7585286310032,1258.8875893707602
ARF1,Afrikaans,female,21,size,7,15,high,small,k,621.6658521443605,6.432402733185399,1.608581196072813,657.6112676411867,111,1,TRUE,smallhigh,692.7585286310032,1258.8875893707602
ARF1,Afrikaans,female,21,size,7,16,low,big,s,574.7358556836843,6.353910553829701,1.7399297261703592,621.6658521443605,112,1,TRUE,biglow,692.7585286310032,1258.8875893707602
ARF1,Afrikaans,female,21,size,8,1,low,big,s,720.4982778057456,6.57994302516017,1.3879283695798246,NA,113,1,TRUE,biglow,692.7585286310032,1258.8875893707602
ARF1,Afrikaans,female,21,size,8,2,low,small,s,557.0132099092007,6.322588955820567,1.7952895590447686,720.4982778057456,114,1,FALSE,smalllow,692.7585286310032,1258.8875893707602
ARF1,Afrikaans,female,21,size,8,3,high,big,k,617.6944607868791,6.425993935180472,1.618923373096309,557.0132099092007,115,1,FALSE,bighigh,692.7585286310032,1258.8875893707602
ARF1,Afrikaans,female,21,size,8,4,low,big,s,542.2301292419434,6.2956905040229865,1.8442354013009843,617.6944607868791,116,1,TRUE,biglow,692.7585286310032,1258.8875893707602
ARF1,Afrikaans,female,21,size,8,5,low,big,s,590.0427447631955,6.3801949830266595,1.694792468639428,542.2301292419434,117,1,TRUE,biglow,692.7585286310032,1258.8875893707602
ARF1,Afrikaans,female,21,size,8,6,high,big,k,671.0668681189418,6.508868786431162,1.4901644642404805,590.0427447631955,118,1,FALSE,bighigh,692.7585286310032,1258.8875893707602
ARF1,Afrikaans,female,21,size,8,7,high,small,k,647.4832519888878,6.473092927584943,1.544441492391161,671.0668681189418,119,1,TRUE,smallhigh,692.7585286310032,1258.8875893707602
ARF1,Afrikaans,female,21,size,8,8,high,small,k,596.5309431776404,6.391131114756892,1.6763589742271103,647.4832519888878,120,1,TRUE,smallhigh,692.7585286310032,1258.8875893707602
ARF1,Afrikaans,female,21,size,8,9,low,small,s,643.6476493254304,6.467151447998346,1.5536450743633443,596.5309431776404,121,1,FALSE,smalllow,692.7585286310032,1258.8875893707602
ARF1,Afrikaans,female,21,size,8,10,high,small,k,684.3882594257593,6.528525387320575,1.4611589053837026,643.6476493254304,122,1,TRUE,smallhigh,692.7585286310032,1258.8875893707602
ARF1,Afrikaans,female,21,size,8,11,high,small,k,576.3968853279948,6.3567964604466365,1.734915689960671,684.3882594257593,123,1,TRUE,smallhigh,692.7585286310032,1258.8875893707602
ARF1,Afrikaans,female,21,size,8,12,low,big,s,519.3720292299986,6.252620445699248,1.925402108162356,576.3968853279948,124,1,TRUE,biglow,692.7585286310032,1258.8875893707602
ARF1,Afrikaans,female,21,size,8,13,high,small,k,778.8142990320921,6.657772633668597,1.2840031330225918,519.3720292299986,125,1,TRUE,smallhigh,692.7585286310032,1258.8875893707602
ARF1,Afrikaans,female,21,size,8,14,high,big,k,665.1139259338379,6.4999583431764805,1.5035018227831767,778.8142990320921,126,1,FALSE,bighigh,692.7585286310032,1258.8875893707602
ARF1,Afrikaans,female,21,size,8,15,low,big,s,642.1575378626585,6.464833659666629,1.557250271215963,665.1139259338379,127,1,TRUE,biglow,692.7585286310032,1258.8875893707602
ARF1,Afrikaans,female,21,size,8,16,low,small,s,713.2285106927156,6.569801860922893,1.402075190500672,642.1575378626585,128,1,FALSE,smalllow,692.7585286310032,1258.8875893707602
ARF1,Afrikaans,female,21,size,9,1,low,small,s,724.1882253438234,6.585051338353498,1.3808564748829342,NA,129,1,FALSE,smalllow,692.7585286310032,1258.8875893707602
ARF1,Afrikaans,female,21,size,9,2,high,small,k,558.8656840845942,6.325909165365059,1.7893387060219506,724.1882253438234,130,1,TRUE,smallhigh,692.7585286310032,1258.8875893707602
ARF1,Afrikaans,female,21,size,9,3,low,small,s,646.6645793989301,6.471827735650442,1.5463967439340696,558.8656840845942,131,1,FALSE,smalllow,692.7585286310032,1258.8875893707602
ARF1,Afrikaans,female,21,size,9,4,high,big,k,646.2576119229198,6.471198204357403,1.5473705555661166,646.6645793989301,132,1,FALSE,bighigh,692.7585286310032,1258.8875893707602
ARF1,Afrikaans,female,21,size,9,5,high,small,k,634.2005450278521,6.452365221498157,1.576788301177009,646.2576119229198,133,1,TRUE,smallhigh,692.7585286310032,1258.8875893707602
ARF1,Afrikaans,female,21,size,9,6,high,small,k,628.6186501383781,6.443524793249428,1.5907895824914986,634.2005450278521,134,1,TRUE,smallhigh,692.7585286310032,1258.8875893707602
ARF1,Afrikaans,female,21,size,9,7,high,small,k,573.9613929763436,6.352562134434442,1.7422774636711775,628.6186501383781,135,1,TRUE,smallhigh,692.7585286310032,1258.8875893707602
ARF1,Afrikaans,female,21,size,9,8,low,big,s,569.6572428569198,6.345034851637015,1.7554415616394945,573.9613929763436,136,1,TRUE,biglow,692.7585286310032,1258.8875893707602
ARF1,Afrikaans,female,21,size,9,9,low,big,s,666.89258441329,6.502628990088194,1.499491857267789,569.6572428569198,137,1,TRUE,biglow,692.7585286310032,1258.8875893707602
ARF1,Afrikaans,female,21,size,9,10,low,big,s,651.0855704545975,6.478641078201199,1.5358964249534595,666.89258441329,138,1,TRUE,biglow,692.7585286310032,1258.8875893707602
ARF1,Afrikaans,female,21,size,9,11,high,big,k,540.5466007068753,6.292580851136777,1.8499792593132494,651.0855704545975,139,1,FALSE,bighigh,692.7585286310032,1258.8875893707602
ARF1,Afrikaans,female,21,size,9,12,low,small,s,605.9559425339103,6.406807281337133,1.6502849956687047,540.5466007068753,140,1,FALSE,smalllow,692.7585286310032,1258.8875893707602
ARF1,Afrikaans,female,21,size,9,13,high,small,k,705.0930997356772,6.558329850456258,1.4182524270552022,605.9559425339103,141,1,TRUE,smallhigh,692.7585286310032,1258.8875893707602
ARF1,Afrikaans,female,21,size,9,14,high,big,k,592.3799490556121,6.384148234851903,1.6881057530630919,705.0930997356772,142,1,FALSE,bighigh,692.7585286310032,1258.8875893707602
ARF1,Afrikaans,female,21,size,9,15,low,big,s,625.450536608696,6.438472248616567,1.598847457102168,592.3799490556121,143,1,TRUE,biglow,692.7585286310032,1258.8875893707602
ARF1,Afrikaans,female,21,size,9,16,low,big,s,597.5742181763053,6.392878490612694,1.67343230277208,625.450536608696,144,1,TRUE,biglow,692.7585286310032,1258.8875893707602
ARF1,Afrikaans,female,21,size,10,1,high,small,k,608.8580070063472,6.4115850828993866,1.6424190673238126,NA,145,1,TRUE,smallhigh,692.7585286310032,1258.8875893707602
ARF1,Afrikaans,female,21,size,10,2,low,small,s,623.5475372523069,6.43542500479967,1.6037269658806599,608.8580070063472,146,1,FALSE,smalllow,692.7585286310032,1258.8875893707602
ARF1,Afrikaans,female,21,size,10,4,high,big,k,587.3210737481713,6.3755716443096615,1.7026462095395118,1845.6742782145739,148,1,FALSE,bighigh,692.7585286310032,1258.8875893707602
ARF1,Afrikaans,female,21,size,10,5,low,big,s,780.7386126369238,6.660240410897584,1.2808384058558688,587.3210737481713,149,1,TRUE,biglow,692.7585286310032,1258.8875893707602
ARF1,Afrikaans,female,21,size,10,6,low,big,s,572.0011573284864,6.349141014679301,1.7482482110184336,780.7386126369238,150,1,TRUE,biglow,692.7585286310032,1258.8875893707602
ARF1,Afrikaans,female,21,size,10,7,low,big,s,618.4053728356957,6.427144185520876,1.6170622765040081,572.0011573284864,151,1,TRUE,biglow,692.7585286310032,1258.8875893707602
ARF1,Afrikaans,female,21,size,10,8,low,small,s,559.3034410849214,6.326692154293725,1.787938221978802,618.4053728356957,152,1,FALSE,smalllow,692.7585286310032,1258.8875893707602
ARF1,Afrikaans,female,21,size,10,9,low,big,s,591.1168092861772,6.382013644722857,1.6917130155841507,559.3034410849214,153,1,TRUE,biglow,692.7585286310032,1258.8875893707602
ARF1,Afrikaans,female,21,size,10,10,high,small,k,585.3111017495394,6.372143503739946,1.7084931364037415,591.1168092861772,154,1,TRUE,smallhigh,692.7585286310032,1258.8875893707602
ARF1,Afrikaans,female,21,size,10,11,high,big,k,547.547553665936,6.305449313929733,1.8263253909268848,585.3111017495394,155,1,FALSE,bighigh,692.7585286310032,1258.8875893707602
ARF1,Afrikaans,female,21,size,10,12,high,small,k,490.56927766650915,6.195566507903726,2.038448075584146,547.547553665936,156,1,TRUE,smallhigh,692.7585286310032,1258.8875893707602
ARF1,Afrikaans,female,21,size,10,13,high,big,k,614.1012227162719,6.4201597724036725,1.6283960412533192,490.56927766650915,157,1,FALSE,bighigh,692.7585286310032,1258.8875893707602
ARF1,Afrikaans,female,21,size,10,14,high,small,k,666.7421916499734,6.502403451932391,1.4998300880364572,614.1012227162719,158,1,TRUE,smallhigh,692.7585286310032,1258.8875893707602
ARF1,Afrikaans,female,21,size,10,15,high,small,k,499.11442026495934,6.212835368594667,2.0035486040838912,666.7421916499734,159,1,TRUE,smallhigh,692.7585286310032,1258.8875893707602
ARF1,Afrikaans,female,21,size,10,16,low,small,s,577.6564730331302,6.358979354671021,1.7311326829754876,499.11442026495934,160,1,FALSE,smalllow,692.7585286310032,1258.8875893707602
ARF1,Afrikaans,female,21,height,11,1,low,low,s,724.1566460579634,6.585007730941356,1.3809166917732842,NA,161,1,TRUE,lowlow,692.7585286310032,1258.8875893707602
ARF1,Afrikaans,female,21,height,11,2,low,low,s,507.21272733062506,6.228930496125662,1.9715593598426269,724.1566460579634,162,1,TRUE,lowlow,692.7585286310032,1258.8875893707602
ARF1,Afrikaans,female,21,height,11,3,high,high,k,503.5879099741578,6.221758294682169,1.9857506111521146,507.21272733062506,163,1,TRUE,highhigh,692.7585286310032,1258.8875893707602
ARF1,Afrikaans,female,21,height,11,4,low,low,s,655.6080058217049,6.485563058237618,1.5253016911327253,503.5879099741578,164,1,TRUE,lowlow,692.7585286310032,1258.8875893707602
ARF1,Afrikaans,female,21,height,11,5,low,low,s,472.82334230840206,6.158721835237853,2.114954805568257,655.6080058217049,165,1,TRUE,lowlow,692.7585286310032,1258.8875893707602
ARF1,Afrikaans,female,21,height,11,6,high,low,k,601.9975766539574,6.400253419808953,1.6611362549966278,472.82334230840206,166,1,FALSE,lowhigh,692.7585286310032,1258.8875893707602
ARF1,Afrikaans,female,21,height,11,7,low,low,s,941.1076717078686,6.847057555683464,1.0625776731638548,601.9975766539574,167,1,TRUE,lowlow,692.7585286310032,1258.8875893707602
ARF1,Afrikaans,female,21,height,11,8,high,high,k,489.1296923160553,6.1926276737706445,2.0444475477760236,941.1076717078686,168,1,TRUE,highhigh,692.7585286310032,1258.8875893707602
ARF1,Afrikaans,female,21,height,11,9,high,high,k,635.0855324417353,6.453759686580536,1.5745910572947008,489.1296923160553,169,1,TRUE,highhigh,692.7585286310032,1258.8875893707602
ARF1,Afrikaans,female,21,height,11,10,low,high,s,603.4403201192617,6.402647146035858,1.6571647048748146,635.0855324417353,170,1,FALSE,highlow,692.7585286310032,1258.8875893707602
ARF1,Afrikaans,female,21,height,11,11,low,low,s,717.6637118682265,6.576001091458181,1.393410288778283,603.4403201192617,171,1,TRUE,lowlow,692.7585286310032,1258.8875893707602
ARF1,Afrikaans,female,21,height,11,12,high,low,k,639.165080152452,6.460162762409781,1.564541041199376,717.6637118682265,172,1,FALSE,lowhigh,692.7585286310032,1258.8875893707602
ARF1,Afrikaans,female,21,height,11,13,high,high,k,708.0148998647928,6.5624651384790464,1.4123996545707815,639.165080152452,173,1,TRUE,highhigh,692.7585286310032,1258.8875893707602
ARF1,Afrikaans,female,21,height,11,14,low,high,s,583.3871811628342,6.368851084553951,1.714127482209592,708.0148998647928,174,1,FALSE,highlow,692.7585286310032,1258.8875893707602
ARF1,Afrikaans,female,21,height,11,15,high,high,k,826.0948164388537,6.716709556810671,1.2105147981811823,583.3871811628342,175,1,TRUE,highhigh,692.7585286310032,1258.8875893707602
ARF1,Afrikaans,female,21,height,11,16,high,high,k,576.9183253869414,6.357700706032981,1.733347609177254,826.0948164388537,176,1,TRUE,highhigh,692.7585286310032,1258.8875893707602
ARF1,Afrikaans,female,21,size,12,1,low,small,s,790.2796631678939,6.672386886826423,1.2653748370436697,NA,177,1,FALSE,smalllow,692.7585286310032,1258.8875893707602
ARF1,Afrikaans,female,21,size,12,2,low,small,s,561.7069602012634,6.330980290775953,1.7802877137959856,790.2796631678939,178,1,FALSE,smalllow,692.7585286310032,1258.8875893707602
ARF1,Afrikaans,female,21,size,12,3,high,small,k,567.8967414423823,6.341939608959516,1.7608834969894926,561.7069602012634,179,1,TRUE,smallhigh,692.7585286310032,1258.8875893707602
ARF1,Afrikaans,female,21,size,12,4,high,big,k,567.307012155652,6.3409006248336945,1.7627139777458452,567.8967414423823,180,1,FALSE,bighigh,692.7585286310032,1258.8875893707602
ARF1,Afrikaans,female,21,size,12,5,low,small,s,537.5648001208901,6.287049311099689,1.8602408486848752,567.307012155652,181,1,FALSE,smalllow,692.7585286310032,1258.8875893707602
ARF1,Afrikaans,female,21,size,12,7,low,big,s,857.1163536980748,6.753573677991245,1.166702741915314,541.6802680119872,183,1,TRUE,biglow,692.7585286310032,1258.8875893707602
ARF1,Afrikaans,female,21,size,12,8,low,big,s,746.9815891236067,6.616040538408215,1.3387210803592178,857.1163536980748,184,1,TRUE,biglow,692.7585286310032,1258.8875893707602
ARF1,Afrikaans,female,21,size,12,9,high,big,k,569.0872510895133,6.344033763477135,1.7571997933278376,746.9815891236067,185,1,FALSE,bighigh,692.7585286310032,1258.8875893707602
ARF1,Afrikaans,female,21,size,12,10,low,small,s,882.8263869509101,6.783128564002613,1.132725544660918,569.0872510895133,186,1,FALSE,smalllow,692.7585286310032,1258.8875893707602
ARF1,Afrikaans,female,21,size,12,11,low,small,s,633.0818766728044,6.450599760814016,1.579574517684116,882.8263869509101,187,1,FALSE,smalllow,692.7585286310032,1258.8875893707602
ARF1,Afrikaans,female,21,size,12,12,high,big,k,582.7445592731237,6.367748941575627,1.716017737252378,633.0818766728044,188,1,FALSE,bighigh,692.7585286310032,1258.8875893707602
ARF1,Afrikaans,female,21,size,12,13,low,big,s,696.8688732013106,6.546597262791089,1.4349901946490313,582.7445592731237,189,1,TRUE,biglow,692.7585286310032,1258.8875893707602
ARF1,Afrikaans,female,21,size,12,14,high,small,k,657.0543013513088,6.487766665527863,1.5219442258324516,696.8688732013106,190,1,TRUE,smallhigh,692.7585286310032,1258.8875893707602
ARF1,Afrikaans,female,21,size,12,15,high,big,k,629.0137758478522,6.444153157649567,1.5897903009391054,657.0543013513088,191,1,FALSE,bighigh,692.7585286310032,1258.8875893707602
ARF1,Afrikaans,female,21,size,12,16,high,big,k,686.9058553129435,6.532197245441684,1.45580357521398,629.0137758478522,192,1,FALSE,bighigh,692.7585286310032,1258.8875893707602
ARF1,Afrikaans,female,21,size,13,1,high,small,k,782.1406982839108,6.662034645440625,1.2785423417987234,NA,193,1,TRUE,smallhigh,692.7585286310032,1258.8875893707602
ARF1,Afrikaans,female,21,size,13,2,high,big,k,589.6081458777189,6.379458156718831,1.6960416964920864,782.1406982839108,194,1,FALSE,bighigh,692.7585286310032,1258.8875893707602
ARF1,Afrikaans,female,21,size,13,3,high,small,k,595.0933322310448,6.388718254136759,1.680408678502468,589.6081458777189,195,1,TRUE,smallhigh,692.7585286310032,1258.8875893707602
ARF1,Afrikaans,female,21,size,13,4,low,big,s,479.0782555937767,6.171863956914158,2.0873416572843304,595.0933322310448,196,1,TRUE,biglow,692.7585286310032,1258.8875893707602
ARF1,Afrikaans,female,21,size,13,5,low,small,s,586.0918797552586,6.373476568677753,1.706217121482014,479.0782555937767,197,1,FALSE,smalllow,692.7585286310032,1258.8875893707602
ARF1,Afrikaans,female,21,size,13,6,high,big,k,575.9283388033509,6.3559832411563635,1.7363271306943748,586.0918797552586,198,1,FALSE,bighigh,692.7585286310032,1258.8875893707602
ARF1,Afrikaans,female,21,size,13,7,low,big,s,595.803058706224,6.389910174046172,1.6784069591241824,575.9283388033509,199,1,TRUE,biglow,692.7585286310032,1258.8875893707602
ARF1,Afrikaans,female,21,size,13,8,low,small,s,671.6273864731193,6.509703702324815,1.4889208214859226,595.803058706224,200,1,FALSE,smalllow,692.7585286310032,1258.8875893707602
ARF1,Afrikaans,female,21,size,13,9,high,small,k,629.6433722600341,6.445153583326471,1.5882006292079474,671.6273864731193,201,1,TRUE,smallhigh,692.7585286310032,1258.8875893707602
ARF1,Afrikaans,female,21,size,13,10,low,small,s,542.6572281867266,6.296477864966818,1.8427838938798826,629.6433722600341,202,1,FALSE,smalllow,692.7585286310032,1258.8875893707602
ARF1,Afrikaans,female,21,size,13,11,low,small,s,604.5499090105295,6.4044842291124775,1.6541231502899503,542.6572281867266,203,1,FALSE,smalllow,692.7585286310032,1258.8875893707602
ARF1,Afrikaans,female,21,size,13,12,high,big,k,479.3695667758584,6.172471838082549,2.0860731871774743,604.5499090105295,204,1,FALSE,bighigh,692.7585286310032,1258.8875893707602
ARF1,Afrikaans,female,21,size,13,13,low,small,s,637.347737327218,6.457315405096667,1.5690021968126864,479.3695667758584,205,1,FALSE,smalllow,692.7585286310032,1258.8875893707602
ARF1,Afrikaans,female,21,size,13,14,high,big,k,238.82821667939425,5.475744534837039,4.187109939954924,637.347737327218,206,1,FALSE,bighigh,692.7585286310032,1258.8875893707602
ARF1,Afrikaans,female,21,size,13,15,low,big,s,624.7262042015791,6.4373134804767975,1.6007012244316425,238.82821667939425,207,1,TRUE,biglow,692.7585286310032,1258.8875893707602
ARF1,Afrikaans,female,21,size,13,16,high,big,k,1124.0533851087093,7.024696524974072,0.8896374613944943,624.7262042015791,208,1,FALSE,bighigh,692.7585286310032,1258.8875893707602
ARF1,Afrikaans,female,21,height,14,1,low,high,s,1000.3394689410925,6.908094690316685,0.9996606462589627,NA,209,1,FALSE,highlow,692.7585286310032,1258.8875893707602
ARF1,Afrikaans,female,21,height,14,2,low,high,s,583.4653386846185,6.368985047536541,1.7138978679597825,1000.3394689410925,210,1,FALSE,highlow,692.7585286310032,1258.8875893707602
ARF1,Afrikaans,female,21,height,14,3,low,low,s,681.3642233610153,6.524096999241782,1.4676438323503787,583.4653386846185,211,1,TRUE,lowlow,692.7585286310032,1258.8875893707602
ARF1,Afrikaans,female,21,height,14,4,low,high,s,717.6866065710783,6.576032992663845,1.3933658380191074,681.3642233610153,212,1,FALSE,highlow,692.7585286310032,1258.8875893707602
ARF1,Afrikaans,female,21,height,14,5,high,high,k,579.6482861042023,6.362421516335022,1.7251840883045964,717.6866065710783,213,1,TRUE,highhigh,692.7585286310032,1258.8875893707602
ARF1,Afrikaans,female,21,height,14,6,high,high,k,627.6886630803347,6.442044284112645,1.5931465052954368,579.6482861042023,214,1,TRUE,highhigh,692.7585286310032,1258.8875893707602
ARF1,Afrikaans,female,21,height,14,7,high,low,k,1032.2337560355663,6.939480428178894,0.968772813476509,627.6886630803347,215,1,FALSE,lowhigh,692.7585286310032,1258.8875893707602
ARF1,Afrikaans,female,21,height,14,8,low,high,s,765.331856906414,6.640309539640237,1.30662272970336,1032.2337560355663,216,1,FALSE,highlow,692.7585286310032,1258.8875893707602
ARF1,Afrikaans,female,21,height,14,9,high,high,k,1111.3394852727652,7.013321310265669,0.8998150549420655,765.331856906414,217,1,TRUE,highhigh,692.7585286310032,1258.8875893707602
ARF1,Afrikaans,female,21,height,14,10,high,low,k,666.5886417031288,6.502173126579249,1.5001755767170106,1111.3394852727652,218,1,FALSE,lowhigh,692.7585286310032,1258.8875893707602
ARF1,Afrikaans,female,21,height,14,11,high,low,k,671.4517306536436,6.509442130510859,1.489310332146321,666.5886417031288,219,1,FALSE,lowhigh,692.7585286310032,1258.8875893707602
ARF1,Afrikaans,female,21,height,14,12,high,low,k,546.1048111319542,6.302810919102736,1.8311503206265878,671.4517306536436,220,1,FALSE,lowhigh,692.7585286310032,1258.8875893707602
ARF1,Afrikaans,female,21,height,14,13,low,low,s,561.2060464918613,6.330088122389547,1.7818767389465433,546.1048111319542,221,1,TRUE,lowlow,692.7585286310032,1258.8875893707602
ARF1,Afrikaans,female,21,height,14,14,low,low,s,745.9233142435551,6.614622798999731,1.3406203840325135,561.2060464918613,222,1,TRUE,lowlow,692.7585286310032,1258.8875893707602
ARF1,Afrikaans,female,21,height,14,15,high,low,k,674.8645771294832,6.514512044269507,1.4817787655317025,745.9233142435551,223,1,FALSE,lowhigh,692.7585286310032,1258.8875893707602
ARF1,Afrikaans,female,21,height,14,16,low,high,s,627.4376139044762,6.441644245990888,1.593783952124114,674.8645771294832,224,1,FALSE,highlow,692.7585286310032,1258.8875893707602
ARF1,Afrikaans,female,21,size,15,1,high,big,k,759.4416765496135,6.632583527184102,1.316756810797269,NA,225,1,FALSE,bighigh,692.7585286310032,1258.8875893707602
ARF1,Afrikaans,female,21,size,15,2,low,small,s,672.9635521769524,6.511691170937388,1.4859645767815002,759.4416765496135,226,1,FALSE,smalllow,692.7585286310032,1258.8875893707602
ARF1,Afrikaans,female,21,size,15,3,low,small,s,742.7749373018742,6.610393088066389,1.3463028298080364,672.9635521769524,227,1,FALSE,smalllow,692.7585286310032,1258.8875893707602
ARF1,Afrikaans,female,21,size,15,5,low,big,s,694.1187800839543,6.542643098720549,1.4406756144518218,1312.087974511087,229,1,TRUE,biglow,692.7585286310032,1258.8875893707602
ARF1,Afrikaans,female,21,size,15,6,low,small,s,624.8201504349709,6.437463849021702,1.6004605474132776,694.1187800839543,230,1,FALSE,smalllow,692.7585286310032,1258.8875893707602
ARF1,Afrikaans,female,21,size,15,7,high,big,k,580.0363076850772,6.363090701038231,1.7240300076920985,624.8201504349709,231,1,FALSE,bighigh,692.7585286310032,1258.8875893707602
ARF1,Afrikaans,female,21,size,15,8,high,big,k,735.6725372374058,6.600785097489826,1.3593004351571905,580.0363076850772,232,1,FALSE,bighigh,692.7585286310032,1258.8875893707602
ARF1,Afrikaans,female,21,size,15,9,high,small,k,662.5529080629349,6.49610041589871,1.5093134266418637,735.6725372374058,233,1,TRUE,smallhigh,692.7585286310032,1258.8875893707602
ARF1,Afrikaans,female,21,size,15,10,low,big,s,659.516635350883,6.491507196025572,1.5162619809703048,662.5529080629349,234,1,TRUE,biglow,692.7585286310032,1258.8875893707602
ARF1,Afrikaans,female,21,size,15,11,high,big,k,954.5537978410721,6.861244003904455,1.0476098908848452,659.516635350883,235,1,FALSE,bighigh,692.7585286310032,1258.8875893707602
ARF1,Afrikaans,female,21,size,15,12,high,small,k,580.1756475120783,6.363330898231591,1.723615950252689,954.5537978410721,236,1,TRUE,smallhigh,692.7585286310032,1258.8875893707602
ARF1,Afrikaans,female,21,size,15,13,high,big,k,843.2608917355537,6.737276390236113,1.1858726164115763,580.1756475120783,237,1,FALSE,bighigh,692.7585286310032,1258.8875893707602
ARF1,Afrikaans,female,21,size,15,14,low,big,s,729.2538117617369,6.592021835695757,1.371264687097339,843.2608917355537,238,1,TRUE,biglow,692.7585286310032,1258.8875893707602
ARF1,Afrikaans,female,21,size,15,15,low,small,s,1014.9966310709715,6.922640572328479,0.9852249449782431,729.2538117617369,239,1,FALSE,smalllow,692.7585286310032,1258.8875893707602
ARF1,Afrikaans,female,21,size,15,16,high,small,k,588.018168695271,6.376757846562875,1.7006277241719558,1014.9966310709715,240,1,TRUE,smallhigh,692.7585286310032,1258.8875893707602
ARF1,Afrikaans,female,21,height,16,3,low,low,s,557.4237303808331,6.323325687483633,1.7939673994804595,1325.8115975186229,243,1,TRUE,lowlow,692.7585286310032,1258.8875893707602
ARF1,Afrikaans,female,21,height,16,4,high,high,k,1105.5835131555796,7.008128540778104,0.9044997398213538,557.4237303808331,244,1,TRUE,highhigh,692.7585286310032,1258.8875893707602
ARF1,Afrikaans,female,21,height,16,5,high,low,k,968.7960976734757,6.876054164230641,1.0322089471679945,1105.5835131555796,245,1,FALSE,lowhigh,692.7585286310032,1258.8875893707602
ARF1,Afrikaans,female,21,height,16,6,low,high,s,624.6172590181231,6.437139076580768,1.6009804173070172,968.7960976734757,246,1,FALSE,highlow,692.7585286310032,1258.8875893707602
ARF1,Afrikaans,female,21,height,16,7,low,high,s,691.4247386157513,6.538754307315673,1.4462890089845841,624.6172590181231,247,1,FALSE,highlow,692.7585286310032,1258.8875893707602
ARF1,Afrikaans,female,21,height,16,8,high,high,k,584.7640037536621,6.371208353452286,1.7100915815284354,691.4247386157513,248,1,TRUE,highhigh,692.7585286310032,1258.8875893707602
ARF1,Afrikaans,female,21,height,16,9,low,low,s,623.9087162539363,6.4360040696136975,1.6027985728492233,584.7640037536621,249,1,TRUE,lowlow,692.7585286310032,1258.8875893707602
ARF1,Afrikaans,female,21,height,16,10,low,high,s,635.8690746128559,6.454992684621597,1.5726507860267342,623.9087162539363,250,1,FALSE,highlow,692.7585286310032,1258.8875893707602
ARF1,Afrikaans,female,21,height,16,11,high,low,k,656.4586525782943,6.486859710157438,1.5233251874621798,635.8690746128559,251,1,FALSE,lowhigh,692.7585286310032,1258.8875893707602
ARF1,Afrikaans,female,21,height,16,14,high,low,k,730.4565580561757,6.593669760642369,1.3690068067307228,1726.9639754667878,254,1,FALSE,lowhigh,692.7585286310032,1258.8875893707602
ARF1,Afrikaans,female,21,height,16,15,low,low,s,790.4083458706737,6.672549705424816,1.265168827257828,730.4565580561757,255,1,TRUE,lowlow,692.7585286310032,1258.8875893707602
ARF1,Afrikaans,female,21,height,16,16,high,high,k,661.6181852295995,6.4946886300753786,1.5114457587845365,790.4083458706737,256,1,TRUE,highhigh,692.7585286310032,1258.8875893707602
ARF1,Afrikaans,female,21,height,17,1,high,high,k,789.2892826348543,6.671132898305756,1.2669625978725292,NA,257,1,TRUE,highhigh,692.7585286310032,1258.8875893707602
ARF1,Afrikaans,female,21,height,17,2,high,low,k,688.2147844880819,6.534100975969131,1.4530347538869495,789.2892826348543,258,1,FALSE,lowhigh,692.7585286310032,1258.8875893707602
ARF1,Afrikaans,female,21,height,17,3,low,high,s,744.9060911312699,6.613258158261525,1.34245109807241,688.2147844880819,259,1,FALSE,highlow,692.7585286310032,1258.8875893707602
ARF1,Afrikaans,female,21,height,17,4,low,low,s,699.9201457947493,6.550966251100006,1.4287344149303125,744.9060911312699,260,1,TRUE,lowlow,692.7585286310032,1258.8875893707602
ARF1,Afrikaans,female,21,height,17,5,low,high,s,649.6925642713904,6.4764992729562705,1.53918954132016,699.9201457947493,261,1,FALSE,highlow,692.7585286310032,1258.8875893707602
ARF1,Afrikaans,female,21,height,17,6,low,low,s,612.8080822527409,6.41805180739414,1.6318322635757425,649.6925642713904,262,1,TRUE,lowlow,692.7585286310032,1258.8875893707602
ARF1,Afrikaans,female,21,height,17,7,high,low,k,660.4355704039335,6.4928995725033065,1.5141522425698288,612.8080822527409,263,1,FALSE,lowhigh,692.7585286310032,1258.8875893707602
ARF1,Afrikaans,female,21,height,17,8,high,low,k,560.5160556733608,6.3288578873711,1.7840702150782763,660.4355704039335,264,1,FALSE,lowhigh,692.7585286310032,1258.8875893707602
ARF1,Afrikaans,female,21,height,17,9,high,low,k,586.3563492894173,6.373927709345789,1.7054475511553027,560.5160556733608,265,1,FALSE,lowhigh,692.7585286310032,1258.8875893707602
ARF1,Afrikaans,female,21,height,17,10,low,low,s,685.524296015501,6.530183941139425,1.4587375032691594,586.3563492894173,266,1,TRUE,lowlow,692.7585286310032,1258.8875893707602
ARF1,Afrikaans,female,21,height,17,11,high,high,k,867.5404172390699,6.765662101213025,1.1526840480613918,685.524296015501,267,1,TRUE,highhigh,692.7585286310032,1258.8875893707602
ARF1,Afrikaans,female,21,height,17,12,high,high,k,599.141301587224,6.395497466101458,1.669055358645507,867.5404172390699,268,1,TRUE,highhigh,692.7585286310032,1258.8875893707602
ARF1,Afrikaans,female,21,height,17,13,low,low,s,447.65606615692377,6.104025228104006,2.2338578109415246,599.141301587224,269,1,TRUE,lowlow,692.7585286310032,1258.8875893707602
ARF1,Afrikaans,female,21,height,17,14,low,high,s,780.7780867442489,6.660290969572172,1.2807736500007068,447.65606615692377,270,1,FALSE,highlow,692.7585286310032,1258.8875893707602
ARF1,Afrikaans,female,21,height,17,15,low,high,s,608.0945963039994,6.410330455890231,1.6444809838436365,780.7780867442489,271,1,FALSE,highlow,692.7585286310032,1258.8875893707602
ARF1,Afrikaans,female,21,height,17,16,high,high,k,544.7382517158985,6.300305407214748,1.8357440419321565,608.0945963039994,272,1,TRUE,highhigh,692.7585286310032,1258.8875893707602
ARF1,Afrikaans,female,21,size,18,1,low,small,s,922.1100434660912,6.82666456943469,1.0844692638214097,NA,273,1,FALSE,smalllow,692.7585286310032,1258.8875893707602
ARF1,Afrikaans,female,21,size,18,2,low,small,s,769.8515290394425,6.646197676826378,1.2989517618386988,922.1100434660912,274,1,FALSE,smalllow,692.7585286310032,1258.8875893707602
ARF1,Afrikaans,female,21,size,18,3,high,small,k,757.4999928474426,6.630023527941204,1.320132025666429,769.8515290394425,275,1,TRUE,smallhigh,692.7585286310032,1258.8875893707602
ARF1,Afrikaans,female,21,size,18,4,low,small,s,1178.8547188043594,7.072298668860147,0.8482809493388965,757.4999928474426,276,1,FALSE,smalllow,692.7585286310032,1258.8875893707602
ARF1,Afrikaans,female,21,size,18,5,low,big,s,681.4408004283905,6.524209380787371,1.467478905535662,1178.8547188043594,277,1,TRUE,biglow,692.7585286310032,1258.8875893707602
ARF1,Afrikaans,female,21,size,18,6,high,big,k,912.2322890907526,6.815894660593428,1.096212019634525,681.4408004283905,278,1,FALSE,bighigh,692.7585286310032,1258.8875893707602
ARF1,Afrikaans,female,21,size,18,7,low,big,s,645.2672313898802,6.469664543224531,1.5497455183738982,912.2322890907526,279,1,TRUE,biglow,692.7585286310032,1258.8875893707602
ARF1,Afrikaans,female,21,size,18,8,high,big,k,678.5837356001139,6.520007884482758,1.473657483281172,645.2672313898802,280,1,FALSE,bighigh,692.7585286310032,1258.8875893707602
ARF1,Afrikaans,female,21,size,18,9,low,small,s,602.2056005895138,6.4005989162194545,1.6605624375148214,678.5837356001139,281,1,FALSE,smalllow,692.7585286310032,1258.8875893707602
ARF1,Afrikaans,female,21,size,18,10,high,big,k,686.5955963730812,6.531745467331427,1.456461423991746,602.2056005895138,282,1,FALSE,bighigh,692.7585286310032,1258.8875893707602
ARF1,Afrikaans,female,21,size,18,11,low,small,s,626.2921039015055,6.439816881917971,1.5966990383089137,686.5955963730812,283,1,FALSE,smalllow,692.7585286310032,1258.8875893707602
ARF1,Afrikaans,female,21,size,18,12,high,big,k,830.210680142045,6.72167950007732,1.204513533635709,626.2921039015055,284,1,FALSE,bighigh,692.7585286310032,1258.8875893707602
ARF1,Afrikaans,female,21,size,18,13,high,big,k,796.0837921127677,6.679704446777583,1.256149176641379,830.210680142045,285,1,FALSE,bighigh,692.7585286310032,1258.8875893707602
ARF1,Afrikaans,female,21,size,18,14,high,small,k,700.9124998003244,6.552383057275526,1.4267116084887619,796.0837921127677,286,1,TRUE,smallhigh,692.7585286310032,1258.8875893707602
ARF1,Afrikaans,female,21,size,18,15,high,small,k,741.0456193611026,6.608062187990948,1.3494445873145524,700.9124998003244,287,1,TRUE,smallhigh,692.7585286310032,1258.8875893707602
ARF1,Afrikaans,female,21,size,18,16,low,big,s,634.1180456802249,6.4522351290303055,1.576993442801789,741.0456193611026,288,1,TRUE,biglow,692.7585286310032,1258.8875893707602
ARF1,Afrikaans,female,21,height,19,1,high,low,k,857.9788412898779,6.75457943868258,1.1655299080529875,NA,289,1,FALSE,lowhigh,692.7585286310032,1258.8875893707602
ARF1,Afrikaans,female,21,height,19,2,low,high,s,622.462815605104,6.4336838925870135,1.6065216667246016,857.9788412898779,290,1,FALSE,highlow,692.7585286310032,1258.8875893707602
ARF1,Afrikaans,female,21,height,19,3,high,high,k,660.0432069972157,6.492305298025019,1.515052332027437,622.462815605104,291,1,TRUE,highhigh,692.7585286310032,1258.8875893707602
ARF1,Afrikaans,female,21,height,19,4,low,low,s,613.8659622520208,6.41977660179454,1.6290201143119465,660.0432069972157,292,1,TRUE,lowlow,692.7585286310032,1258.8875893707602
ARF1,Afrikaans,female,21,height,19,5,low,low,s,929.5179657638073,6.834666135391928,1.075826435671177,613.8659622520208,293,1,TRUE,lowlow,692.7585286310032,1258.8875893707602
ARF1,Afrikaans,female,21,height,19,6,high,low,k,754.9295024946332,6.626624370710091,1.3246269972170135,929.5179657638073,294,1,FALSE,lowhigh,692.7585286310032,1258.8875893707602
ARF1,Afrikaans,female,21,height,19,8,high,low,k,1100.103854201734,7.003159867240511,0.9090050872748081,590.9091802313924,296,1,FALSE,lowhigh,692.7585286310032,1258.8875893707602
ARF1,Afrikaans,female,21,height,19,9,low,high,s,1218.4944236651063,7.105371296661771,0.8206849211439988,1100.103854201734,297,1,FALSE,highlow,692.7585286310032,1258.8875893707602
ARF1,Afrikaans,female,21,height,19,10,low,high,s,817.8504593670368,6.706679507380769,1.2227174155699994,1218.4944236651063,298,1,FALSE,highlow,692.7585286310032,1258.8875893707602
ARF1,Afrikaans,female,21,height,19,11,low,high,s,633.1296386197209,6.450675201522558,1.5794553579581099,817.8504593670368,299,1,FALSE,highlow,692.7585286310032,1258.8875893707602
ARF1,Afrikaans,female,21,height,19,12,high,low,k,591.3343066349626,6.382381520144191,1.6910907904034584,633.1296386197209,300,1,FALSE,lowhigh,692.7585286310032,1258.8875893707602
ARF1,Afrikaans,female,21,height,19,13,low,low,s,1066.0377545282245,6.971704021104461,0.9380530809085186,591.3343066349626,301,1,TRUE,lowlow,692.7585286310032,1258.8875893707602
ARF1,Afrikaans,female,21,height,19,14,high,low,k,625.283170491457,6.438204619916249,1.5992754118330499,1066.0377545282245,302,1,FALSE,lowhigh,692.7585286310032,1258.8875893707602
ARF1,Afrikaans,female,21,height,19,15,low,high,s,590.4714232310653,6.380921240276821,1.6935620601721764,625.283170491457,303,1,FALSE,highlow,692.7585286310032,1258.8875893707602
ARF1,Afrikaans,female,21,height,19,16,high,high,k,852.7727304026484,6.748493076355583,1.1726453770723133,590.4714232310653,304,1,TRUE,highhigh,692.7585286310032,1258.8875893707602
ARF1,Afrikaans,female,21,height,20,1,high,high,k,715.2384826913476,6.572616029306826,1.3981350615212043,NA,305,1,TRUE,highhigh,692.7585286310032,1258.8875893707602
ARF1,Afrikaans,female,21,height,20,2,high,high,k,603.6218963563442,6.402948002505348,1.6566662111436339,715.2384826913476,306,1,TRUE,highhigh,692.7585286310032,1258.8875893707602
ARF1,Afrikaans,female,21,height,20,3,low,low,s,566.2136068567634,6.338971404280178,1.7661179242076617,603.6218963563442,307,1,TRUE,lowlow,692.7585286310032,1258.8875893707602
ARF1,Afrikaans,female,21,height,20,4,high,high,k,653.1843561679125,6.481859411280906,1.5309613443083327,566.2136068567634,308,1,TRUE,highhigh,692.7585286310032,1258.8875893707602
ARF1,Afrikaans,female,21,height,20,5,low,high,s,712.6691769808531,6.569017325334699,1.4031755999837026,653.1843561679125,309,1,FALSE,highlow,692.7585286310032,1258.8875893707602
ARF1,Afrikaans,female,21,height,20,6,high,high,k,553.342605009675,6.315977348583679,1.8071986341671906,712.6691769808531,310,1,TRUE,highhigh,692.7585286310032,1258.8875893707602
ARF1,Afrikaans,female,21,height,20,7,low,low,s,537.0532283559442,6.286097211302302,1.8620128270362568,553.342605009675,311,1,TRUE,lowlow,692.7585286310032,1258.8875893707602
ARF1,Afrikaans,female,21,height,20,8,low,high,s,755.6025199592113,6.627515470665747,1.3234471479184342,537.0532283559442,312,1,FALSE,highlow,692.7585286310032,1258.8875893707602
ARF1,Afrikaans,female,21,height,20,9,high,low,k,807.5262624770403,6.693975577759325,1.238349817791136,755.6025199592113,313,1,FALSE,lowhigh,692.7585286310032,1258.8875893707602
ARF1,Afrikaans,female,21,height,20,10,high,low,k,655.7781361043453,6.485822524581139,1.5249059780194976,807.5262624770403,314,1,FALSE,lowhigh,692.7585286310032,1258.8875893707602
ARF1,Afrikaans,female,21,height,20,11,low,low,s,613.305838778615,6.418863732851769,1.630507875143465,655.7781361043453,315,1,TRUE,lowlow,692.7585286310032,1258.8875893707602
ARF1,Afrikaans,female,21,height,20,12,high,low,k,639.161922968924,6.460157822854377,1.5645487693556175,613.305838778615,316,1,FALSE,lowhigh,692.7585286310032,1258.8875893707602
ARF1,Afrikaans,female,21,height,20,13,low,low,s,809.5642598345876,6.696496152097531,1.2352323955164755,639.161922968924,317,1,TRUE,lowlow,692.7585286310032,1258.8875893707602
ARF1,Afrikaans,female,21,height,20,14,low,low,s,596.5037075802684,6.391085457076523,1.6764355146366552,809.5642598345876,318,1,TRUE,lowlow,692.7585286310032,1258.8875893707602
ARF1,Afrikaans,female,21,height,20,15,low,high,s,758.0320909619331,6.630725721107603,1.3192053633653062,596.5037075802684,319,1,FALSE,highlow,692.7585286310032,1258.8875893707602
ARF1,Afrikaans,female,21,height,20,16,high,high,k,623.273198492825,6.43498494352054,1.6044328593274362,758.0320909619331,320,1,TRUE,highhigh,692.7585286310032,1258.8875893707602
ARF10,Afrikaans,female,19,height,1,1,high,high,k,1085.5990583077073,6.989887241080809,0.9211503937363911,NA,1,1,TRUE,highhigh,944.8350055861008,2184.4784214310703
ARF10,Afrikaans,female,19,height,1,2,low,high,s,717.3720048740506,6.575594541300871,1.3939768951195282,1085.5990583077073,2,1,FALSE,highlow,944.8350055861008,2184.4784214310703
ARF10,Afrikaans,female,19,height,1,3,low,high,s,658.8341454043984,6.490471826657395,1.5178326851687245,717.3720048740506,3,1,FALSE,highlow,944.8350055861008,2184.4784214310703
ARF10,Afrikaans,female,19,height,1,4,high,high,k,785.5693344026804,6.66640872165858,1.2729621132173716,658.8341454043984,4,1,TRUE,highhigh,944.8350055861008,2184.4784214310703
ARF10,Afrikaans,female,19,height,1,5,low,high,s,1472.347691655159,7.294613474967231,0.6791873995984175,785.5693344026804,5,1,FALSE,highlow,944.8350055861008,2184.4784214310703
ARF10,Afrikaans,female,19,height,1,6,low,low,s,881.1357524245977,6.7812117030833905,1.1348989043383233,1472.347691655159,6,1,TRUE,lowlow,944.8350055861008,2184.4784214310703
ARF10,Afrikaans,female,19,height,1,7,high,low,k,927.0469481125474,6.832004209496533,1.0786940208756242,881.1357524245977,7,1,FALSE,lowhigh,944.8350055861008,2184.4784214310703
ARF10,Afrikaans,female,19,height,1,8,low,high,s,1497.975225560367,7.311869625596191,0.6675677827888756,927.0469481125474,8,1,FALSE,highlow,944.8350055861008,2184.4784214310703
ARF10,Afrikaans,female,19,height,1,9,low,low,s,747.5073710083961,6.616744166097021,1.337779450456774,1497.975225560367,9,1,TRUE,lowlow,944.8350055861008,2184.4784214310703
ARF10,Afrikaans,female,19,height,1,11,high,low,k,2150.4976181313396,7.673454544634867,0.46500865268055647,715.6047942116857,11,1,FALSE,lowhigh,944.8350055861008,2184.4784214310703
ARF10,Afrikaans,female,19,height,1,12,high,low,k,806.9921908900142,6.693313991506914,1.2391693640766481,2150.4976181313396,12,1,FALSE,lowhigh,944.8350055861008,2184.4784214310703
ARF10,Afrikaans,female,19,height,1,13,high,high,k,905.127914622426,6.808076275836297,1.1048162186193868,806.9921908900142,13,1,TRUE,highhigh,944.8350055861008,2184.4784214310703
ARF10,Afrikaans,female,19,height,1,14,high,high,k,812.5977693125606,6.700236238426256,1.2306211483277605,905.127914622426,14,1,TRUE,highhigh,944.8350055861008,2184.4784214310703
ARF10,Afrikaans,female,19,height,1,15,low,low,s,791.9912179931998,6.674550303360525,1.2626402632769929,812.5977693125606,15,1,TRUE,lowlow,944.8350055861008,2184.4784214310703
ARF10,Afrikaans,female,19,height,1,16,low,low,s,796.0605034604669,6.679675192328263,1.2561859251313312,791.9912179931998,16,1,TRUE,lowlow,944.8350055861008,2184.4784214310703
ARF10,Afrikaans,female,19,size,2,1,high,small,k,861.622211523354,6.758816904900976,1.1606014638735846,NA,17,1,TRUE,smallhigh,944.8350055861008,2184.4784214310703
ARF10,Afrikaans,female,19,size,2,2,high,small,k,717.6929218694568,6.576041792146147,1.3933535771750205,861.622211523354,18,1,TRUE,smallhigh,944.8350055861008,2184.4784214310703
ARF10,Afrikaans,female,19,size,2,3,low,big,s,647.1295729279518,6.472546541726674,1.5452855839603779,717.6929218694568,19,1,TRUE,biglow,944.8350055861008,2184.4784214310703
ARF10,Afrikaans,female,19,size,2,5,high,big,k,1067.4915499985218,6.973066829379199,0.9367755651099858,1819.1471509635448,21,1,FALSE,bighigh,944.8350055861008,2184.4784214310703
ARF10,Afrikaans,female,19,size,2,8,low,small,s,924.0525159984827,6.828768905522802,1.0821895754695852,2815.347862429917,24,1,FALSE,smalllow,944.8350055861008,2184.4784214310703
ARF10,Afrikaans,female,19,size,2,9,low,big,s,1902.275586500764,7.55080612561712,0.5256861871625551,924.0525159984827,25,1,TRUE,biglow,944.8350055861008,2184.4784214310703
ARF10,Afrikaans,female,19,size,2,10,low,small,s,830.9290902689099,6.722544460611589,1.203472127418688,1902.275586500764,26,1,FALSE,smalllow,944.8350055861008,2184.4784214310703
ARF10,Afrikaans,female,19,size,2,11,low,big,s,2005.3872922435403,7.603592484300794,0.498656795057898,830.9290902689099,27,1,TRUE,biglow,944.8350055861008,2184.4784214310703
ARF10,Afrikaans,female,19,size,2,12,high,small,k,1502.0922729745507,7.314614263842286,0.6657380628286759,2005.3872922435403,28,1,TRUE,smallhigh,944.8350055861008,2184.4784214310703
ARF10,Afrikaans,female,19,size,2,13,low,big,s,688.7863548472524,6.534931142881371,1.4518289930725523,1502.0922729745507,29,1,TRUE,biglow,944.8350055861008,2184.4784214310703
ARF10,Afrikaans,female,19,size,2,14,low,small,s,1386.874157935381,7.234807686519757,0.7210459537934467,688.7863548472524,30,1,FALSE,smalllow,944.8350055861008,2184.4784214310703
ARF10,Afrikaans,female,19,size,2,15,high,small,k,769.3596947938204,6.64555860370276,1.2997821523104203,1386.874157935381,31,1,TRUE,smallhigh,944.8350055861008,2184.4784214310703
ARF10,Afrikaans,female,19,size,2,16,high,small,k,777.7682598680258,6.656428613313816,1.2857300195943753,769.3596947938204,32,1,TRUE,smallhigh,944.8350055861008,2184.4784214310703
ARF10,Afrikaans,female,19,size,3,1,low,small,s,881.3354866579175,6.781438355558332,1.1346417058412865,NA,33,1,FALSE,smalllow,944.8350055861008,2184.4784214310703
ARF10,Afrikaans,female,19,size,3,2,low,big,s,889.8462876677513,6.791048737324339,1.1237895958648734,881.3354866579175,34,1,TRUE,biglow,944.8350055861008,2184.4784214310703
ARF10,Afrikaans,female,19,size,3,3,low,big,s,865.942545235157,6.763818561367463,1.154811027016161,889.8462876677513,35,1,TRUE,biglow,944.8350055861008,2184.4784214310703
ARF10,Afrikaans,female,19,size,3,4,high,small,k,880.3944475948811,6.780370042947823,1.135854505593334,865.942545235157,36,1,TRUE,smallhigh,944.8350055861008,2184.4784214310703
ARF10,Afrikaans,female,19,size,3,5,low,small,s,1136.38202752918,7.035604834586737,0.8799857581118969,880.3944475948811,37,1,FALSE,smalllow,944.8350055861008,2184.4784214310703
ARF10,Afrikaans,female,19,size,3,6,high,big,k,813.5084146633744,6.7013562703835605,1.22924358491583,1136.38202752918,38,1,FALSE,bighigh,944.8350055861008,2184.4784214310703
ARF10,Afrikaans,female,19,size,3,7,low,small,s,748.4866986051202,6.618053432967139,1.3360290862397421,813.5084146633744,39,1,FALSE,smalllow,944.8350055861008,2184.4784214310703
ARF10,Afrikaans,female,19,size,3,8,low,small,s,2131.3476245850325,7.664509746239659,0.46918671945628637,748.4866986051202,40,1,FALSE,smalllow,944.8350055861008,2184.4784214310703
ARF10,Afrikaans,female,19,size,3,9,high,big,k,1068.1353565305471,6.9736697498139995,0.9362109342098175,2131.3476245850325,41,1,FALSE,bighigh,944.8350055861008,2184.4784214310703
ARF10,Afrikaans,female,19,size,3,10,high,big,k,960.8442354947329,6.8678123099794055,1.040751417408573,1068.1353565305471,42,1,FALSE,bighigh,944.8350055861008,2184.4784214310703
ARF10,Afrikaans,female,19,size,3,11,low,small,s,1426.46886408329,7.262957343624803,0.7010317751608569,960.8442354947329,43,1,FALSE,smalllow,944.8350055861008,2184.4784214310703
ARF10,Afrikaans,female,19,size,3,12,high,small,k,807.2175830602646,6.693593251582466,1.2388233618609652,1426.46886408329,44,1,TRUE,smallhigh,944.8350055861008,2184.4784214310703
ARF10,Afrikaans,female,19,size,3,13,high,small,k,721.2794506922364,6.581026649837526,1.3864251907360816,807.2175830602646,45,1,TRUE,smallhigh,944.8350055861008,2184.4784214310703
ARF10,Afrikaans,female,19,size,3,14,low,big,s,559.7344879060984,6.327462542555514,1.7865613457925091,721.2794506922364,46,1,TRUE,biglow,944.8350055861008,2184.4784214310703
ARF10,Afrikaans,female,19,size,3,15,high,big,k,1164.7304445505142,7.060244961159538,0.8585677524604536,559.7344879060984,47,1,FALSE,bighigh,944.8350055861008,2184.4784214310703
ARF10,Afrikaans,female,19,size,3,16,high,big,k,674.8026050627232,6.514420211160394,1.481914848131106,1164.7304445505142,48,1,FALSE,bighigh,944.8350055861008,2184.4784214310703
ARF10,Afrikaans,female,19,size,4,1,high,big,k,782.1884611621499,6.662095710438314,1.2784642699973263,NA,49,1,FALSE,bighigh,944.8350055861008,2184.4784214310703
ARF10,Afrikaans,female,19,size,4,2,high,small,k,721.9579936936498,6.581966956720567,1.3851221383170007,782.1884611621499,50,1,TRUE,smallhigh,944.8350055861008,2184.4784214310703
ARF10,Afrikaans,female,19,size,4,3,low,small,s,814.6310308948159,6.702735287902496,1.2275496047598002,721.9579936936498,51,1,FALSE,smalllow,944.8350055861008,2184.4784214310703
ARF10,Afrikaans,female,19,size,4,4,high,small,k,935.5482757091522,6.841132748561371,1.0688919278291578,814.6310308948159,52,1,TRUE,smallhigh,944.8350055861008,2184.4784214310703
ARF10,Afrikaans,female,19,size,4,5,high,big,k,1469.568389467895,7.292724024053287,0.6804719039731676,935.5482757091522,53,1,FALSE,bighigh,944.8350055861008,2184.4784214310703
ARF10,Afrikaans,female,19,size,4,6,high,big,k,667.9287534207106,6.504181511292608,1.4971656705578695,1469.568389467895,54,1,FALSE,bighigh,944.8350055861008,2184.4784214310703
ARF10,Afrikaans,female,19,size,4,7,low,big,s,986.9845258072019,6.894654361303693,1.0131871106916832,667.9287534207106,55,1,TRUE,biglow,944.8350055861008,2184.4784214310703
ARF10,Afrikaans,female,19,size,4,8,high,big,k,1367.6069295033813,7.22081772466031,0.7312042505978891,986.9845258072019,56,1,FALSE,bighigh,944.8350055861008,2184.4784214310703
ARF10,Afrikaans,female,19,size,4,9,low,big,s,626.524600200355,6.440188039647202,1.5961065210850651,1367.6069295033813,57,1,TRUE,biglow,944.8350055861008,2184.4784214310703
ARF10,Afrikaans,female,19,size,4,10,high,small,k,810.099121183157,6.697156612010721,1.2344168433851541,626.524600200355,58,1,TRUE,smallhigh,944.8350055861008,2184.4784214310703
ARF10,Afrikaans,female,19,size,4,11,low,small,s,722.0854917541146,6.5821435415146965,1.3848775684036607,810.099121183157,59,1,FALSE,smalllow,944.8350055861008,2184.4784214310703
ARF10,Afrikaans,female,19,size,4,12,low,big,s,837.4358415603638,6.7303446536726454,1.1941213289088946,722.0854917541146,60,1,TRUE,biglow,944.8350055861008,2184.4784214310703
ARF10,Afrikaans,female,19,size,4,13,low,big,s,676.4004770666361,6.516785322326713,1.47841409624181,837.4358415603638,61,1,TRUE,biglow,944.8350055861008,2184.4784214310703
ARF10,Afrikaans,female,19,size,4,14,high,small,k,896.4094845578074,6.798397322591242,1.1155616012845881,676.4004770666361,62,1,TRUE,smallhigh,944.8350055861008,2184.4784214310703
ARF10,Afrikaans,female,19,size,4,15,low,small,s,1696.492299437523,7.436318045126169,0.5894515408832407,896.4094845578074,63,1,FALSE,smalllow,944.8350055861008,2184.4784214310703
ARF10,Afrikaans,female,19,size,4,16,low,small,s,771.7063715681434,6.648604129964581,1.2958296534055476,1696.492299437523,64,1,FALSE,smalllow,944.8350055861008,2184.4784214310703
ARF10,Afrikaans,female,19,height,5,1,low,high,s,1031.9211296737194,6.939177518386221,0.9690663086976303,NA,65,1,FALSE,highlow,944.8350055861008,2184.4784214310703
ARF10,Afrikaans,female,19,height,5,2,high,high,k,737.8080328926444,6.603683672732262,1.355366105298973,1031.9211296737194,66,1,TRUE,highhigh,944.8350055861008,2184.4784214310703
ARF10,Afrikaans,female,19,height,5,3,high,high,k,816.3279807195067,6.704816211365265,1.2249978239366557,737.8080328926444,67,1,TRUE,highhigh,944.8350055861008,2184.4784214310703
ARF10,Afrikaans,female,19,height,5,4,low,high,s,1043.449256569147,6.950287097226722,0.9583599717038394,816.3279807195067,68,1,FALSE,highlow,944.8350055861008,2184.4784214310703
ARF10,Afrikaans,female,19,height,5,5,high,low,k,806.7885097116232,6.693061564173513,1.2394822037778375,1043.449256569147,69,1,FALSE,lowhigh,944.8350055861008,2184.4784214310703
ARF10,Afrikaans,female,19,height,5,6,high,low,k,614.0017500147223,6.4199977783299245,1.6286598531291194,806.7885097116232,70,1,FALSE,lowhigh,944.8350055861008,2184.4784214310703
ARF10,Afrikaans,female,19,height,5,7,high,low,k,676.7213931307197,6.517259656645253,1.4777129999891017,614.0017500147223,71,1,FALSE,lowhigh,944.8350055861008,2184.4784214310703
ARF10,Afrikaans,female,19,height,5,8,high,low,k,815.1437873020768,6.703364523817119,1.2267774294272071,676.7213931307197,72,1,FALSE,lowhigh,944.8350055861008,2184.4784214310703
ARF10,Afrikaans,female,19,height,5,9,high,low,k,859.7847372293472,6.756682052368621,1.163081823506772,815.1437873020768,73,1,FALSE,lowhigh,944.8350055861008,2184.4784214310703
ARF10,Afrikaans,female,19,height,5,10,low,high,s,751.9220449030399,6.622632654883621,1.3299250989894167,859.7847372293472,74,1,FALSE,highlow,944.8350055861008,2184.4784214310703
ARF10,Afrikaans,female,19,height,5,11,low,low,s,797.3508788272738,6.681294831378454,1.2541530040962368,751.9220449030399,75,1,TRUE,lowlow,944.8350055861008,2184.4784214310703
ARF10,Afrikaans,female,19,height,5,12,low,high,s,696.7240069061518,6.546389359467602,1.4352885648946776,797.3508788272738,76,1,FALSE,highlow,944.8350055861008,2184.4784214310703
ARF10,Afrikaans,female,19,height,5,13,low,high,s,850.9936770424247,6.746404698513368,1.175096862617637,696.7240069061518,77,1,FALSE,highlow,944.8350055861008,2184.4784214310703
ARF10,Afrikaans,female,19,height,5,14,low,low,s,770.0188951566815,6.646415053711171,1.2986694304384863,850.9936770424247,78,1,TRUE,lowlow,944.8350055861008,2184.4784214310703
ARF10,Afrikaans,female,19,height,5,15,low,high,s,727.0764745771885,6.589031663991861,1.375371140403797,770.0188951566815,79,1,FALSE,highlow,944.8350055861008,2184.4784214310703
ARF10,Afrikaans,female,19,height,5,16,high,low,k,861.9928639382124,6.759246992135473,1.1601024113253913,727.0764745771885,80,1,FALSE,lowhigh,944.8350055861008,2184.4784214310703
ARF10,Afrikaans,female,19,height,6,1,low,high,s,797.352853231132,6.681297307579919,1.2541498985645767,NA,81,1,FALSE,highlow,944.8350055861008,2184.4784214310703
ARF10,Afrikaans,female,19,height,6,2,high,low,k,761.2629663199186,6.634978851811618,1.3136065252644284,797.352853231132,82,1,FALSE,lowhigh,944.8350055861008,2184.4784214310703
ARF10,Afrikaans,female,19,height,6,3,high,high,k,1627.108408138156,7.394559735692708,0.6145871995980069,761.2629663199186,83,1,TRUE,highhigh,944.8350055861008,2184.4784214310703
ARF10,Afrikaans,female,19,height,6,4,high,low,k,729.336311109364,6.592134957739327,1.371109575607089,1627.108408138156,84,1,FALSE,lowhigh,944.8350055861008,2184.4784214310703
ARF10,Afrikaans,female,19,height,6,5,low,high,s,596.2869990617037,6.390722093211022,1.6770447814115768,729.336311109364,85,1,FALSE,highlow,944.8350055861008,2184.4784214310703
ARF10,Afrikaans,female,19,height,6,6,low,low,s,1089.9655753746629,6.993901392499381,0.9174601680940812,596.2869990617037,86,1,TRUE,lowlow,944.8350055861008,2184.4784214310703
ARF10,Afrikaans,female,19,height,6,7,high,high,k,792.6437091082335,6.67537382572615,1.261600878817361,1089.9655753746629,87,1,TRUE,highhigh,944.8350055861008,2184.4784214310703
ARF10,Afrikaans,female,19,height,6,8,high,low,k,809.8895186558366,6.696897841642416,1.2347363152194974,792.6437091082335,88,1,FALSE,lowhigh,944.8350055861008,2184.4784214310703
ARF10,Afrikaans,female,19,height,6,9,low,high,s,749.2114258930087,6.619021221245164,1.334736718421063,809.8895186558366,89,1,FALSE,highlow,944.8350055861008,2184.4784214310703
ARF10,Afrikaans,female,19,height,6,10,high,high,k,792.753049172461,6.675511759733937,1.2614268731528435,749.2114258930087,90,1,TRUE,highhigh,944.8350055861008,2184.4784214310703
ARF10,Afrikaans,female,19,height,6,11,low,high,s,738.6819683015347,6.604867474194166,1.3537625702429406,792.753049172461,91,1,FALSE,highlow,944.8350055861008,2184.4784214310703
ARF10,Afrikaans,female,19,height,6,12,high,high,k,644.8634210973978,6.469038544136933,1.550715961370933,738.6819683015347,92,1,TRUE,highhigh,944.8350055861008,2184.4784214310703
ARF10,Afrikaans,female,19,height,6,13,low,low,s,852.1881336346269,6.747807316578614,1.1734498058954983,644.8634210973978,93,1,TRUE,lowlow,944.8350055861008,2184.4784214310703
ARF10,Afrikaans,female,19,height,6,14,low,low,s,788.4189002215862,6.670029547875018,1.2683612730731704,852.1881336346269,94,1,TRUE,lowlow,944.8350055861008,2184.4784214310703
ARF10,Afrikaans,female,19,height,6,15,high,low,k,1273.5100965946913,7.149532222613204,0.7852313088635536,788.4189002215862,95,1,FALSE,lowhigh,944.8350055861008,2184.4784214310703
ARF10,Afrikaans,female,19,height,7,1,low,low,s,844.2970607429743,6.738504400374801,1.1844172466027638,NA,97,1,TRUE,lowlow,944.8350055861008,2184.4784214310703
ARF10,Afrikaans,female,19,height,7,2,high,low,k,740.8995693549514,6.607865082176595,1.3497105969040164,844.2970607429743,98,1,FALSE,lowhigh,944.8350055861008,2184.4784214310703
ARF10,Afrikaans,female,19,height,7,3,low,low,s,674.3719521909952,6.513781816544904,1.4828611966305216,740.8995693549514,99,1,TRUE,lowlow,944.8350055861008,2184.4784214310703
ARF10,Afrikaans,female,19,height,7,4,high,high,k,1164.5157095044851,7.060060579576454,0.858726071136912,674.3719521909952,100,1,TRUE,highhigh,944.8350055861008,2184.4784214310703
ARF10,Afrikaans,female,19,height,7,5,low,low,s,669.2586038261652,6.506170538240373,1.494190727295816,1164.5157095044851,101,1,TRUE,lowlow,944.8350055861008,2184.4784214310703
ARF10,Afrikaans,female,19,height,7,6,low,high,s,792.5438424572349,6.6752478259338455,1.261759850281039,669.2586038261652,102,1,FALSE,highlow,944.8350055861008,2184.4784214310703
ARF10,Afrikaans,female,19,height,7,7,high,high,k,685.44692825526,6.5300710755169336,1.4589021538770404,792.5438424572349,103,1,TRUE,highhigh,944.8350055861008,2184.4784214310703
ARF10,Afrikaans,female,19,height,7,8,high,high,k,1043.2147858664393,6.9500623646402335,0.9585753706217388,685.44692825526,104,1,TRUE,highhigh,944.8350055861008,2184.4784214310703
ARF10,Afrikaans,female,19,height,7,9,high,high,k,643.625938333571,6.467117716253875,1.5536974824058933,1043.2147858664393,105,1,TRUE,highhigh,944.8350055861008,2184.4784214310703
ARF10,Afrikaans,female,19,height,7,10,low,high,s,744.3570205941796,6.612520786124062,1.343441349154945,643.625938333571,106,1,FALSE,highlow,944.8350055861008,2184.4784214310703
ARF10,Afrikaans,female,19,height,7,11,low,low,s,844.1103529185057,6.738283235952376,1.1846792265282695,744.3570205941796,107,1,TRUE,lowlow,944.8350055861008,2184.4784214310703
ARF10,Afrikaans,female,19,height,7,12,low,high,s,998.8556737080216,6.906610297448907,1.001145637274833,844.1103529185057,108,1,FALSE,highlow,944.8350055861008,2184.4784214310703
ARF10,Afrikaans,female,19,height,7,13,low,high,s,626.6007833182812,6.440309628626281,1.5959124639205104,998.8556737080216,109,1,FALSE,highlow,944.8350055861008,2184.4784214310703
ARF10,Afrikaans,female,19,height,7,14,high,low,k,766.6135495528579,6.641982827657015,1.3044382017292404,626.6007833182812,110,1,FALSE,lowhigh,944.8350055861008,2184.4784214310703
ARF10,Afrikaans,female,19,height,7,15,high,low,k,560.42171549052,6.328689563695174,1.7843705416103133,766.6135495528579,111,1,FALSE,lowhigh,944.8350055861008,2184.4784214310703
ARF10,Afrikaans,female,19,height,7,16,high,low,k,784.8892118781805,6.665542576457065,1.2740651608742024,560.42171549052,112,1,FALSE,lowhigh,944.8350055861008,2184.4784214310703
ARF10,Afrikaans,female,19,size,8,1,low,small,s,966.8571772053838,6.874050787756408,1.0342789230674305,NA,113,1,FALSE,smalllow,944.8350055861008,2184.4784214310703
ARF10,Afrikaans,female,19,size,8,2,high,big,k,925.7609136402607,6.8306160086956185,1.0801925046368805,966.8571772053838,114,1,FALSE,bighigh,944.8350055861008,2184.4784214310703
ARF10,Afrikaans,female,19,size,8,3,low,small,s,750.9024543687701,6.621275755669907,1.3317308981772185,925.7609136402607,115,1,FALSE,smalllow,944.8350055861008,2184.4784214310703
ARF10,Afrikaans,female,19,size,8,4,low,small,s,865.3011070564389,6.763077547002189,1.1556670757093754,750.9024543687701,116,1,FALSE,smalllow,944.8350055861008,2184.4784214310703
ARF10,Afrikaans,female,19,size,8,5,high,small,k,707.1914905682206,6.561301478683481,1.414044163903204,865.3011070564389,117,1,TRUE,smallhigh,944.8350055861008,2184.4784214310703
ARF10,Afrikaans,female,19,size,8,7,low,big,s,1063.8939691707492,6.969691011900886,0.9399432922619617,2297.935279086232,119,1,TRUE,biglow,944.8350055861008,2184.4784214310703
ARF10,Afrikaans,female,19,size,8,8,low,big,s,847.9416146874428,6.742811782817161,1.1793264803598618,1063.8939691707492,120,1,TRUE,biglow,944.8350055861008,2184.4784214310703
ARF10,Afrikaans,female,19,size,8,9,low,small,s,687.6763701438904,6.533318335031494,1.4541724034966603,847.9416146874428,121,1,FALSE,smalllow,944.8350055861008,2184.4784214310703
ARF10,Afrikaans,female,19,size,8,10,low,big,s,731.2839142978191,6.5948017759975475,1.3674579468361516,687.6763701438904,122,1,TRUE,biglow,944.8350055861008,2184.4784214310703
ARF10,Afrikaans,female,19,size,8,11,high,small,k,680.8558097109199,6.523350550560425,1.4687397621305214,731.2839142978191,123,1,TRUE,smallhigh,944.8350055861008,2184.4784214310703
ARF10,Afrikaans,female,19,size,8,12,high,small,k,629.8979735001922,6.4455578594456835,1.587558687390657,680.8558097109199,124,1,TRUE,smallhigh,944.8350055861008,2184.4784214310703
ARF10,Afrikaans,female,19,size,8,13,high,big,k,785.44775769114494,6.666253947133987,1.2731591505710576,629.8979735001922,125,1,FALSE,bighigh,944.8350055861008,2184.4784214310703
ARF10,Afrikaans,female,19,size,8,14,high,big,k,866.6345095261931,6.764617330260225,1.1538889681957398,785.44775769114494,126,1,FALSE,bighigh,944.8350055861008,2184.4784214310703
ARF10,Afrikaans,female,19,size,8,15,high,big,k,741.3752200081944,6.608506866915811,1.3488446511456735,866.6345095261931,127,1,FALSE,bighigh,944.8350055861008,2184.4784214310703
ARF10,Afrikaans,female,19,size,8,16,low,small,s,753.6837309598923,6.624972825051762,1.326816486706432,741.3752200081944,128,1,FALSE,smalllow,944.8350055861008,2184.4784214310703
ARF10,Afrikaans,female,19,size,9,1,low,small,s,1988.2235871627927,7.594996849284171,0.5029615413762424,NA,129,1,FALSE,smalllow,944.8350055861008,2184.4784214310703
ARF10,Afrikaans,female,19,size,9,2,high,small,k,621.0512556135654,6.431413615747382,1.610173058924184,1988.2235871627927,130,1,TRUE,smallhigh,944.8350055861008,2184.4784214310703
ARF10,Afrikaans,female,19,size,9,3,low,small,s,893.3779485523701,6.795009725999082,1.119347082184422,621.0512556135654,131,1,FALSE,smalllow,944.8350055861008,2184.4784214310703
ARF10,Afrikaans,female,19,size,9,4,high,big,k,641.4114963263273,6.463671210899996,1.5590615474270135,893.3779485523701,132,1,FALSE,bighigh,944.8350055861008,2184.4784214310703
ARF10,Afrikaans,female,19,size,9,5,low,small,s,1558.755949139595,7.351643313596166,0.6415372467716848,641.4114963263273,133,1,FALSE,smalllow,944.8350055861008,2184.4784214310703
ARF10,Afrikaans,female,19,size,9,6,low,big,s,799.7686080634594,6.684322445909318,1.2503616545057652,1558.755949139595,134,1,TRUE,biglow,944.8350055861008,2184.4784214310703
ARF10,Afrikaans,female,19,size,9,7,high,small,k,644.9589459225535,6.469186665037567,1.5504862849364673,799.7686080634594,135,1,TRUE,smallhigh,944.8350055861008,2184.4784214310703
ARF10,Afrikaans,female,19,size,9,8,high,small,k,710.3457888588309,6.565751878038151,1.407765085236161,644.9589459225535,136,1,TRUE,smallhigh,944.8350055861008,2184.4784214310703
ARF10,Afrikaans,female,19,size,9,9,high,big,k,731.1879955232143,6.594670602504097,1.367637332837272,710.3457888588309,137,1,FALSE,bighigh,944.8350055861008,2184.4784214310703
ARF10,Afrikaans,female,19,size,9,10,low,small,s,675.0781266018748,6.514828427288701,1.4813100300459694,731.1879955232143,138,1,FALSE,smalllow,944.8350055861008,2184.4784214310703
ARF10,Afrikaans,female,19,size,9,11,low,big,s,725.9984631091356,6.58754789789299,1.3774133842066758,675.0781266018748,139,1,TRUE,biglow,944.8350055861008,2184.4784214310703
ARF10,Afrikaans,female,19,size,9,12,low,big,s,614.194774068892,6.420312099453579,1.628148011379585,725.9984631091356,140,1,TRUE,biglow,944.8350055861008,2184.4784214310703
ARF10,Afrikaans,female,19,size,9,13,high,big,k,1353.9354111999273,7.210770750118723,0.7385876694913744,614.194774068892,141,1,FALSE,bighigh,944.8350055861008,2184.4784214310703
ARF10,Afrikaans,female,19,size,9,15,low,big,s,765.1206748560071,6.640033566295929,1.3069833725094364,2184.787134639919,143,1,TRUE,biglow,944.8350055861008,2184.4784214310703
ARF10,Afrikaans,female,19,height,10,1,high,low,k,972.5128868594766,6.879883326674189,1.0282640091580557,NA,145,1,FALSE,lowhigh,944.8350055861008,2184.4784214310703
ARF10,Afrikaans,female,19,height,10,2,low,high,s,845.0537603348494,6.739400247031446,1.1833566655022678,972.5128868594766,146,1,FALSE,highlow,944.8350055861008,2184.4784214310703
ARF10,Afrikaans,female,19,height,10,3,low,high,s,1397.114277817309,7.242164158214349,0.7157610625540849,845.0537603348494,147,1,FALSE,highlow,944.8350055861008,2184.4784214310703
ARF10,Afrikaans,female,19,height,10,4,high,low,k,689.7175256162882,6.536282130606341,1.4498689142434984,1397.114277817309,148,1,FALSE,lowhigh,944.8350055861008,2184.4784214310703
ARF10,Afrikaans,female,19,height,10,5,low,low,s,743.7657127156854,6.611726082977099,1.3445094105625486,689.7175256162882,149,1,TRUE,lowlow,944.8350055861008,2184.4784214310703
ARF10,Afrikaans,female,19,height,10,6,high,high,k,694.9362689629197,6.543820142026223,1.4389808744510322,743.7657127156854,150,1,TRUE,highhigh,944.8350055861008,2184.4784214310703
ARF10,Afrikaans,female,19,height,10,7,high,high,k,612.1398033574224,6.416960693283133,1.6336137505113515,694.9362689629197,151,1,TRUE,highhigh,944.8350055861008,2184.4784214310703
ARF10,Afrikaans,female,19,height,10,8,high,high,k,680.3789734840393,6.522649956875528,1.4697691124686976,612.1398033574224,152,1,TRUE,highhigh,944.8350055861008,2184.4784214310703
ARF10,Afrikaans,female,19,height,10,9,low,low,s,654.4052604585886,6.483726823854315,1.5281050755906644,680.3789734840393,153,1,TRUE,lowlow,944.8350055861008,2184.4784214310703
ARF10,Afrikaans,female,19,height,10,10,high,high,k,648.9334953948855,6.475330239026445,1.5409899582876136,654.4052604585886,154,1,TRUE,highhigh,944.8350055861008,2184.4784214310703
ARF10,Afrikaans,female,19,height,10,11,low,low,s,723.9284925162792,6.584692620265203,1.3813519019318234,648.9334953948855,155,1,TRUE,lowlow,944.8350055861008,2184.4784214310703
ARF10,Afrikaans,female,19,height,10,12,low,low,s,710.123554803431,6.565438975745392,1.408205647081809,723.9284925162792,156,1,TRUE,lowlow,944.8350055861008,2184.4784214310703
ARF10,Afrikaans,female,19,height,10,13,high,low,k,873.031129129231,6.771971212854778,1.1454345287749463,710.123554803431,157,1,FALSE,lowhigh,944.8350055861008,2184.4784214310703
ARF10,Afrikaans,female,19,height,10,14,high,high,k,644.7528963908553,6.468867137021012,1.550981787903114,873.031129129231,158,1,TRUE,highhigh,944.8350055861008,2184.4784214310703
ARF10,Afrikaans,female,19,height,10,15,low,high,s,648.6275782808661,6.474858712674593,1.5417167469974333,644.7528963908553,159,1,FALSE,highlow,944.8350055861008,2184.4784214310703
ARF10,Afrikaans,female,19,height,10,16,low,low,s,560.6380281969905,6.329075471244479,1.783682072398827,648.6275782808661,160,1,TRUE,lowlow,944.8350055861008,2184.4784214310703
ARF10,Afrikaans,female,19,height,11,1,high,high,k,1123.5414184629917,7.024240956511501,0.8900428444978942,NA,161,1,TRUE,highhigh,944.8350055861008,2184.4784214310703
ARF10,Afrikaans,female,19,height,11,2,high,high,k,757.1202609688044,6.6295221060360925,1.3207941347658678,1123.5414184629917,162,1,TRUE,highhigh,944.8350055861008,2184.4784214310703
ARF10,Afrikaans,female,19,height,11,3,high,low,k,949.5138684287667,6.85595013617913,1.0531705046654838,757.1202609688044,163,1,FALSE,lowhigh,944.8350055861008,2184.4784214310703
ARF10,Afrikaans,female,19,height,11,4,low,low,s,664.9216907098889,6.499669275390803,1.5039364995483484,949.5138684287667,164,1,TRUE,lowlow,944.8350055861008,2184.4784214310703
ARF10,Afrikaans,female,19,height,11,6,low,high,s,698.4027987346053,6.548796011869318,1.4318384774686481,2273.072734475136,166,1,FALSE,highlow,944.8350055861008,2184.4784214310703
ARF10,Afrikaans,female,19,height,11,7,high,low,k,981.8652551621199,6.8894540842371415,1.0184696879154624,698.4027987346053,167,1,FALSE,lowhigh,944.8350055861008,2184.4784214310703
ARF10,Afrikaans,female,19,height,11,8,low,high,s,762.7613665536046,6.636945225555367,1.3110260218321153,981.8652551621199,168,1,FALSE,highlow,944.8350055861008,2184.4784214310703
ARF10,Afrikaans,female,19,height,11,9,low,high,s,1093.7313120812178,6.997350351428683,0.9143013361271881,762.7613665536046,169,1,FALSE,highlow,944.8350055861008,2184.4784214310703
ARF10,Afrikaans,female,19,height,11,10,high,high,k,1160.3078749030828,7.056440658284776,0.8618402250209042,1093.7313120812178,170,1,TRUE,highhigh,944.8350055861008,2184.4784214310703
ARF10,Afrikaans,female,19,height,11,11,low,low,s,944.9815638363361,6.851165418135539,1.05822170322594,1160.3078749030828,171,1,TRUE,lowlow,944.8350055861008,2184.4784214310703
ARF10,Afrikaans,female,19,height,11,12,low,low,s,866.8630579486489,6.764881014995719,1.1535847453995873,944.9815638363361,172,1,TRUE,lowlow,944.8350055861008,2184.4784214310703
ARF10,Afrikaans,female,19,height,11,13,low,low,s,695.809019729495,6.545075225740311,1.4371759658832293,866.8630579486489,173,1,TRUE,lowlow,944.8350055861008,2184.4784214310703
ARF10,Afrikaans,female,19,height,11,14,high,high,k,998.0026604607701,6.9057559421002654,1.0020013368885285,695.809019729495,174,1,TRUE,highhigh,944.8350055861008,2184.4784214310703
ARF10,Afrikaans,female,19,height,11,16,low,high,s,1117.5016351044178,7.018850789667341,0.8948532767977215,909.1435158625245,176,1,FALSE,highlow,944.8350055861008,2184.4784214310703
ARF10,Afrikaans,female,19,height,12,1,low,low,s,1630.6980941444635,7.396763480731933,0.6132342973790279,NA,177,1,TRUE,lowlow,944.8350055861008,2184.4784214310703
ARF10,Afrikaans,female,19,height,12,2,high,high,k,612.3928250744939,6.417373947637975,1.632938791989204,1630.6980941444635,178,1,TRUE,highhigh,944.8350055861008,2184.4784214310703
ARF10,Afrikaans,female,19,height,12,3,low,low,s,1268.934371881187,7.145932749971364,0.7880628203943333,612.3928250744939,179,1,TRUE,lowlow,944.8350055861008,2184.4784214310703
ARF10,Afrikaans,female,19,height,12,4,high,high,k,797.8896871209145,6.6819703512036535,1.253306084965674,1268.934371881187,180,1,TRUE,highhigh,944.8350055861008,2184.4784214310703
ARF10,Afrikaans,female,19,height,12,5,low,low,s,791.8037204071879,6.674313533331348,1.2629392540435984,797.8896871209145,181,1,TRUE,lowlow,944.8350055861008,2184.4784214310703
ARF10,Afrikaans,female,19,height,12,6,high,high,k,691.9753886759281,6.539550389487989,1.4451381022574614,791.8037204071879,182,1,TRUE,highhigh,944.8350055861008,2184.4784214310703
ARF10,Afrikaans,female,19,height,12,7,high,low,k,839.49120715260506,6.732796002552804,1.1911977058006484,691.9753886759281,183,1,FALSE,lowhigh,944.8350055861008,2184.4784214310703
ARF10,Afrikaans,female,19,height,12,8,low,low,s,815.7193046063185,6.704070306333122,1.2259118968413023,839.49120715260506,184,1,TRUE,lowlow,944.8350055861008,2184.4784214310703
ARF10,Afrikaans,female,19,height,12,9,low,high,s,932.5167397037148,6.837887102781741,1.0723668084690108,815.7193046063185,185,1,FALSE,highlow,944.8350055861008,2184.4784214310703
ARF10,Afrikaans,female,19,height,12,10,low,low,s,1169.71945296973,7.064519215252518,0.8549058472620598,932.5167397037148,186,1,TRUE,lowlow,944.8350055861008,2184.4784214310703
ARF10,Afrikaans,female,19,height,12,11,low,low,s,713.1428541615605,6.569681756813446,1.402243595605675,1169.71945296973,187,1,TRUE,lowlow,944.8350055861008,2184.4784214310703
ARF10,Afrikaans,female,19,height,12,12,low,high,s,712.9506198689342,6.569412161170115,1.4026216853333207,713.1428541615605,188,1,FALSE,highlow,944.8350055861008,2184.4784214310703
ARF10,Afrikaans,female,19,height,12,13,high,high,k,1051.7697976902127,6.958229545863912,0.9507783948503712,712.9506198689342,189,1,TRUE,highhigh,944.8350055861008,2184.4784214310703
ARF10,Afrikaans,female,19,height,12,14,high,high,k,642.1133279800415,6.464764811444949,1.5573574888186754,1051.7697976902127,190,1,TRUE,highhigh,944.8350055861008,2184.4784214310703
ARF10,Afrikaans,female,19,height,12,15,high,low,k,805.6469466537237,6.691645615095837,1.2412384905739753,642.1133279800415,191,1,FALSE,lowhigh,944.8350055861008,2184.4784214310703
ARF10,Afrikaans,female,19,height,12,16,high,high,k,813.1421050056815,6.700905885178558,1.2297973427326248,805.6469466537237,192,1,TRUE,highhigh,944.8350055861008,2184.4784214310703
ARF10,Afrikaans,female,19,size,13,1,low,big,s,1086.9182497262955,6.9911016770494845,0.9200323945722846,NA,193,1,TRUE,biglow,944.8350055861008,2184.4784214310703
ARF10,Afrikaans,female,19,size,13,2,low,big,s,2091.8583124876022,7.645808094634748,0.478043849351736,1086.9182497262955,194,1,TRUE,biglow,944.8350055861008,2184.4784214310703
ARF10,Afrikaans,female,19,size,13,3,high,small,k,1174.8556960374117,7.068900607153209,0.8511683633767363,2091.8583124876022,195,1,TRUE,smallhigh,944.8350055861008,2184.4784214310703
ARF10,Afrikaans,female,19,size,13,4,low,small,s,1349.817574955523,7.207724732639064,0.7408408503148659,1174.8556960374117,196,1,FALSE,smalllow,944.8350055861008,2184.4784214310703
ARF10,Afrikaans,female,19,size,13,5,high,big,k,1859.3355333432555,7.527974462743753,0.5378265418301926,1349.817574955523,197,1,FALSE,bighigh,944.8350055861008,2184.4784214310703
ARF10,Afrikaans,female,19,size,13,7,high,big,k,864.9344015866518,6.762653667740151,1.156157042852708,742.4334939569235,199,1,FALSE,bighigh,944.8350055861008,2184.4784214310703
ARF10,Afrikaans,female,19,size,13,8,high,small,k,667.5162594765425,6.5035637487440905,1.4980908491789953,864.9344015866518,200,1,TRUE,smallhigh,944.8350055861008,2184.4784214310703
ARF10,Afrikaans,female,19,size,13,9,low,small,s,1218.6045544221997,7.105461675229205,0.8206107521682037,667.5162594765425,201,1,FALSE,smalllow,944.8350055861008,2184.4784214310703
ARF10,Afrikaans,female,19,size,13,10,low,small,s,936.0057692974806,6.841621640237956,1.0683694831822994,1218.6045544221997,202,1,FALSE,smalllow,944.8350055861008,2184.4784214310703
ARF10,Afrikaans,female,19,size,13,12,high,small,k,753.6904411390424,6.6249817281884535,1.326804673930471,2274.039825424552,204,1,TRUE,smallhigh,944.8350055861008,2184.4784214310703
ARF10,Afrikaans,female,19,size,13,14,high,big,k,1097.9423047974706,7.001193074967108,0.910794670749537,3476.4181608334184,206,1,FALSE,bighigh,944.8350055861008,2184.4784214310703
ARF10,Afrikaans,female,19,size,13,15,high,big,k,704.457581974566,6.5574281194118615,1.4195318860747308,1097.9423047974706,207,1,FALSE,bighigh,944.8350055861008,2184.4784214310703
ARF10,Afrikaans,female,19,size,13,16,low,small,s,847.2366239875555,6.741980022799899,1.180307805030261,704.457581974566,208,1,FALSE,smalllow,944.8350055861008,2184.4784214310703
ARF10,Afrikaans,female,19,height,14,1,high,low,k,1314.3892576918006,7.181127393904969,0.7608096263325373,NA,209,1,FALSE,lowhigh,944.8350055861008,2184.4784214310703
ARF10,Afrikaans,female,19,height,14,2,high,high,k,1430.5717004463077,7.265829433880909,0.6990212372354503,1314.3892576918006,210,1,TRUE,highhigh,944.8350055861008,2184.4784214310703
ARF10,Afrikaans,female,19,height,14,3,low,high,s,735.0535988807678,6.59994342020134,1.3604450090750575,1430.5717004463077,211,1,FALSE,highlow,944.8350055861008,2184.4784214310703
ARF10,Afrikaans,female,19,height,14,4,low,low,s,808.6200626567006,6.695329168495085,1.2366747328956018,735.0535988807678,212,1,TRUE,lowlow,944.8350055861008,2184.4784214310703
ARF10,Afrikaans,female,19,height,14,5,low,high,s,739.4864307716489,6.605955932789334,1.3522898573764321,808.6200626567006,213,1,FALSE,highlow,944.8350055861008,2184.4784214310703
ARF10,Afrikaans,female,19,height,14,6,low,low,s,802.3312035948038,6.687521494680368,1.2463680778206696,739.4864307716489,214,1,TRUE,lowlow,944.8350055861008,2184.4784214310703
ARF10,Afrikaans,female,19,height,14,7,low,high,s,556.474007666111,6.321620462825362,1.7970291266506169,802.3312035948038,215,1,FALSE,highlow,944.8350055861008,2184.4784214310703
ARF10,Afrikaans,female,19,height,14,8,low,high,s,656.9019351154566,6.487534745723677,1.5222972357727045,556.474007666111,216,1,FALSE,highlow,944.8350055861008,2184.4784214310703
ARF10,Afrikaans,female,19,height,14,9,high,high,k,900.783502496779,6.803264942937942,1.1101446654253928,656.9019351154566,217,1,TRUE,highhigh,944.8350055861008,2184.4784214310703
ARF10,Afrikaans,female,19,height,14,10,low,low,s,787.0503664016724,6.6682922443387085,1.2705667168060861,900.783502496779,218,1,TRUE,lowlow,944.8350055861008,2184.4784214310703
ARF10,Afrikaans,female,19,height,14,11,high,high,k,697.7759655565023,6.547898084990251,1.4331247411229804,787.0503664016724,219,1,TRUE,highhigh,944.8350055861008,2184.4784214310703
ARF10,Afrikaans,female,19,height,14,12,low,low,s,1188.1893249228597,7.080185851638612,0.8416167179964545,697.7759655565023,220,1,TRUE,lowlow,944.8350055861008,2184.4784214310703
ARF10,Afrikaans,female,19,height,14,13,high,low,k,1847.0337325707078,7.521336243470857,0.5414086285301334,1188.1893249228597,221,1,FALSE,lowhigh,944.8350055861008,2184.4784214310703
ARF10,Afrikaans,female,19,height,14,14,high,high,k,864.072703756392,6.761656913130017,1.1573100222385106,1847.0337325707078,222,1,TRUE,highhigh,944.8350055861008,2184.4784214310703
ARF10,Afrikaans,female,19,height,14,15,high,low,k,760.7265273109078,6.6342739336325245,1.3145328368328366,864.072703756392,223,1,FALSE,lowhigh,944.8350055861008,2184.4784214310703
ARF10,Afrikaans,female,19,height,14,16,high,low,k,674.3628736585379,6.513768354250784,1.4828811594784617,760.7265273109078,224,1,FALSE,lowhigh,944.8350055861008,2184.4784214310703
ARF10,Afrikaans,female,19,height,15,1,low,low,s,862.5841718167067,6.759932734655994,1.1593071524763536,NA,225,1,TRUE,lowlow,944.8350055861008,2184.4784214310703
ARF10,Afrikaans,female,19,height,15,2,high,high,k,787.2647056356072,6.6685645395597435,1.2702207946597053,862.5841718167067,226,1,TRUE,highhigh,944.8350055861008,2184.4784214310703
ARF10,Afrikaans,female,19,height,15,3,high,low,k,776.7435377463698,6.6551102286329735,1.2874262242353283,787.2647056356072,227,1,FALSE,lowhigh,944.8350055861008,2184.4784214310703
ARF10,Afrikaans,female,19,height,15,4,low,low,s,841.0551324486732,6.734657213649078,1.1889826973513256,776.7435377463698,228,1,TRUE,lowlow,944.8350055861008,2184.4784214310703
ARF10,Afrikaans,female,19,height,15,5,low,low,s,814.1522221267223,6.7021473535889555,1.2282715354971427,841.0551324486732,229,1,TRUE,lowlow,944.8350055861008,2184.4784214310703
ARF10,Afrikaans,female,19,height,15,6,high,low,k,798.0941580608487,6.682226583046689,1.2529849891768754,814.1522221267223,230,1,FALSE,lowhigh,944.8350055861008,2184.4784214310703
ARF10,Afrikaans,female,19,height,15,7,low,high,s,1446.4781880378723,7.276887045172096,0.6913343099604469,798.0941580608487,231,1,FALSE,highlow,944.8350055861008,2184.4784214310703
ARF10,Afrikaans,female,19,height,15,8,high,low,k,673.0630239471793,6.511838971541287,1.4857449665493405,1446.4781880378723,232,1,FALSE,lowhigh,944.8350055861008,2184.4784214310703
ARF10,Afrikaans,female,19,height,15,9,high,high,k,698.1722749769688,6.548465884597151,1.4323112444317385,673.0630239471793,233,1,TRUE,highhigh,944.8350055861008,2184.4784214310703
ARF10,Afrikaans,female,19,height,15,10,high,high,k,671.3384427130222,6.509273395375412,1.489561652329615,698.1722749769688,234,1,TRUE,highhigh,944.8350055861008,2184.4784214310703
ARF10,Afrikaans,female,19,height,15,11,low,low,s,654.995777644217,6.484628789269768,1.5267273990629961,671.3384427130222,235,1,TRUE,lowlow,944.8350055861008,2184.4784214310703
ARF10,Afrikaans,female,19,height,15,12,high,high,k,916.1381544545293,6.8201671769417045,1.0915384269694588,654.995777644217,236,1,TRUE,highhigh,944.8350055861008,2184.4784214310703
ARF10,Afrikaans,female,19,height,15,13,low,high,s,638.2244359701872,6.458690002002066,1.5668469328973047,916.1381544545293,237,1,FALSE,highlow,944.8350055861008,2184.4784214310703
ARF10,Afrikaans,female,19,height,15,14,low,high,s,1040.963633917272,6.9479021342077205,0.9606483525624031,638.2244359701872,238,1,FALSE,highlow,944.8350055861008,2184.4784214310703
ARF10,Afrikaans,female,19,height,15,15,high,high,k,747.3092153668404,6.616479042409576,1.3381341744984616,1040.963633917272,239,1,TRUE,highhigh,944.8350055861008,2184.4784214310703
ARF10,Afrikaans,female,19,height,15,16,low,low,s,684.4672057777643,6.52864073383319,1.4609903755194433,747.3092153668404,240,1,TRUE,lowlow,944.8350055861008,2184.4784214310703
ARF10,Afrikaans,female,19,size,16,1,high,small,k,896.7607961967587,6.798789155589164,1.1151245730646209,NA,241,1,TRUE,smallhigh,944.8350055861008,2184.4784214310703
ARF10,Afrikaans,female,19,size,16,2,low,small,s,1583.1495523452759,7.367171529420694,0.6316522646382972,896.7607961967587,242,1,FALSE,smalllow,944.8350055861008,2184.4784214310703
ARF10,Afrikaans,female,19,size,16,3,high,big,k,1509.9407155066729,7.319825667784368,0.6622776574803746,1583.1495523452759,243,1,FALSE,bighigh,944.8350055861008,2184.4784214310703
ARF10,Afrikaans,female,19,size,16,4,low,small,s,1229.9755783751607,7.114749593189806,0.8130242726616035,1509.9407155066729,244,1,FALSE,smalllow,944.8350055861008,2184.4784214310703
ARF10,Afrikaans,female,19,size,16,5,low,big,s,950.2342538908124,6.856708537240945,1.0523720818371025,1229.9755783751607,245,1,TRUE,biglow,944.8350055861008,2184.4784214310703
ARF10,Afrikaans,female,19,size,16,6,low,small,s,904.9534434452653,6.8078834986697645,1.1050292224900335,950.2342538908124,246,1,FALSE,smalllow,944.8350055861008,2184.4784214310703
ARF10,Afrikaans,female,19,size,16,7,high,big,k,947.3965307697654,6.853717728639761,1.055524236707405,904.9534434452653,247,1,FALSE,bighigh,944.8350055861008,2184.4784214310703
ARF10,Afrikaans,female,19,size,16,8,low,small,s,671.8093575909734,6.5099746062133255,1.4885175216759086,947.3965307697654,248,1,FALSE,smalllow,944.8350055861008,2184.4784214310703
ARF10,Afrikaans,female,19,size,16,9,low,big,s,700.8580276742578,6.552305338240882,1.4268224954466475,671.8093575909734,249,1,TRUE,biglow,944.8350055861008,2184.4784214310703
ARF10,Afrikaans,female,19,size,16,10,high,big,k,709.8661893978715,6.565076486636681,1.4087161988208343,700.8580276742578,250,1,FALSE,bighigh,944.8350055861008,2184.4784214310703
ARF10,Afrikaans,female,19,size,16,11,high,big,k,628.7453584372997,6.443726339179622,1.5904689976327242,709.8661893978715,251,1,FALSE,bighigh,944.8350055861008,2184.4784214310703
ARF10,Afrikaans,female,19,size,16,12,low,small,s,743.9804468303919,6.6120147533457905,1.3441213465492783,628.7453584372997,252,1,FALSE,smalllow,944.8350055861008,2184.4784214310703
ARF10,Afrikaans,female,19,size,16,13,high,big,k,664.4428819417953,6.4989489180130775,1.5050202616025605,743.9804468303919,253,1,FALSE,bighigh,944.8350055861008,2184.4784214310703
ARF10,Afrikaans,female,19,size,16,14,high,big,k,805.7156298309565,6.691730863665311,1.2411326812783878,664.4428819417953,254,1,FALSE,bighigh,944.8350055861008,2184.4784214310703
ARF10,Afrikaans,female,19,size,16,15,high,small,k,1168.095133267343,7.0631296097865155,0.8560946548958261,805.7156298309565,255,1,TRUE,smallhigh,944.8350055861008,2184.4784214310703
ARF10,Afrikaans,female,19,size,16,16,low,small,s,799.8897908255458,6.684473956709877,1.250172225561131,1168.095133267343,256,1,FALSE,smalllow,944.8350055861008,2184.4784214310703
ARF10,Afrikaans,female,19,height,17,2,high,high,k,692.7139321342111,6.540617117622909,1.4435973547104193,2338.848781771958,258,1,TRUE,highhigh,944.8350055861008,2184.4784214310703
ARF10,Afrikaans,female,19,height,17,3,low,low,s,825.212987139821,6.7156415192456,1.2118083641242594,692.7139321342111,259,1,TRUE,lowlow,944.8350055861008,2184.4784214310703
ARF10,Afrikaans,female,19,height,17,4,high,high,k,722.5710116326809,6.582815701153625,1.3839470223701005,825.212987139821,260,1,TRUE,highhigh,944.8350055861008,2184.4784214310703
ARF10,Afrikaans,female,19,height,17,5,low,low,s,620.3083712607622,6.4302167273914135,1.6121014100898292,722.5710116326809,261,1,TRUE,lowlow,944.8350055861008,2184.4784214310703
ARF10,Afrikaans,female,19,height,17,6,high,low,k,847.3305702209473,6.742090902125084,1.1801769405525437,620.3083712607622,262,1,FALSE,lowhigh,944.8350055861008,2184.4784214310703
ARF10,Afrikaans,female,19,height,17,7,low,high,s,537.7124296501279,6.2873238998775,1.8597301175475294,847.3305702209473,263,1,FALSE,highlow,944.8350055861008,2184.4784214310703
ARF10,Afrikaans,female,19,height,17,8,high,low,k,749.9819407239556,6.620049127205726,1.333365439486053,537.7124296501279,264,1,FALSE,lowhigh,944.8350055861008,2184.4784214310703
ARF10,Afrikaans,female,19,height,17,9,low,high,s,880.0127422437072,6.7799363871898155,1.136347182258259,749.9819407239556,265,1,FALSE,highlow,944.8350055861008,2184.4784214310703
ARF10,Afrikaans,female,19,height,17,10,high,high,k,1398.2791295275092,7.242997566331119,0.7151647899785994,880.0127422437072,266,1,TRUE,highhigh,944.8350055861008,2184.4784214310703
ARF10,Afrikaans,female,19,height,17,11,low,high,s,815.9083817154169,6.704302071351,1.2256278062710146,1398.2791295275092,267,1,FALSE,highlow,944.8350055861008,2184.4784214310703
ARF10,Afrikaans,female,19,height,17,12,low,low,s,1141.3512993603945,7.039968189731659,0.8761544325225662,815.9083817154169,268,1,TRUE,lowlow,944.8350055861008,2184.4784214310703
ARF10,Afrikaans,female,19,height,17,13,high,low,k,777.1205063909292,6.6555954302223626,1.2868017145039172,1141.3512993603945,269,1,FALSE,lowhigh,944.8350055861008,2184.4784214310703
ARF10,Afrikaans,female,19,height,17,14,high,high,k,998.4534429386258,6.906207524766921,1.001548952604963,777.1205063909292,270,1,TRUE,highhigh,944.8350055861008,2184.4784214310703
ARF10,Afrikaans,female,19,height,17,15,high,low,k,654.6598616987467,6.484115805638429,1.5275107861434274,998.4534429386258,271,1,FALSE,lowhigh,944.8350055861008,2184.4784214310703
ARF10,Afrikaans,female,19,height,17,16,low,high,s,810.486352071166,6.697634502133481,1.233827068703303,654.6598616987467,272,1,FALSE,highlow,944.8350055861008,2184.4784214310703
