participant;language;gender;age;condition;block;trial;sound;visual;key;RT
ARF10;Afrikaans;female;19;height;1;1;high;high;k;1.0855990583077073
ARF10;Afrikaans;female;19;height;1;2;low;high;s;0.7173720048740506
ARF10;Afrikaans;female;19;height;1;3;low;high;s;0.6588341454043984
ARF10;Afrikaans;female;19;height;1;4;high;high;k;0.7855693344026804
ARF10;Afrikaans;female;19;height;1;5;low;high;s;1.472347691655159
ARF10;Afrikaans;female;19;height;1;6;low;low;s;0.8811357524245977
ARF10;Afrikaans;female;19;height;1;7;high;low;k;0.9270469481125474
ARF10;Afrikaans;female;19;height;1;8;low;high;s;1.497975225560367
ARF10;Afrikaans;female;19;height;1;9;low;low;s;0.7475073710083961
ARF10;Afrikaans;female;19;height;1;10;high;low;s;0.7156047942116857
ARF10;Afrikaans;female;19;height;1;11;high;low;k;2.1504976181313396
ARF10;Afrikaans;female;19;height;1;12;high;low;k;0.8069921908900142
ARF10;Afrikaans;female;19;height;1;13;high;high;k;0.905127914622426
ARF10;Afrikaans;female;19;height;1;14;high;high;k;0.8125977693125606
ARF10;Afrikaans;female;19;height;1;15;low;low;s;0.7919912179931998
ARF10;Afrikaans;female;19;height;1;16;low;low;s;0.7960605034604669
ARF10;Afrikaans;female;19;size;2;1;high;small;k;0.861622211523354
ARF10;Afrikaans;female;19;size;2;2;high;small;k;0.7176929218694568
ARF10;Afrikaans;female;19;size;2;3;low;big;s;0.6471295729279518
ARF10;Afrikaans;female;19;size;2;4;high;big;s;1.8191471509635448
ARF10;Afrikaans;female;19;size;2;5;high;big;k;1.0674915499985218
ARF10;Afrikaans;female;19;size;2;6;high;big;k;2.2781260842457414
ARF10;Afrikaans;female;19;size;2;7;low;big;s;2.815347862429917
ARF10;Afrikaans;female;19;size;2;8;low;small;s;0.9240525159984827
ARF10;Afrikaans;female;19;size;2;9;low;big;s;1.902275586500764
ARF10;Afrikaans;female;19;size;2;10;low;small;s;0.8309290902689099
ARF10;Afrikaans;female;19;size;2;11;low;big;s;2.0053872922435403
ARF10;Afrikaans;female;19;size;2;12;high;small;k;1.5020922729745507
ARF10;Afrikaans;female;19;size;2;13;low;big;s;0.6887863548472524
ARF10;Afrikaans;female;19;size;2;14;low;small;s;1.386874157935381
ARF10;Afrikaans;female;19;size;2;15;high;small;k;0.7693596947938204
ARF10;Afrikaans;female;19;size;2;16;high;small;k;0.7777682598680258
ARF10;Afrikaans;female;19;size;3;1;low;small;s;0.8813354866579175
ARF10;Afrikaans;female;19;size;3;2;low;big;s;0.8898462876677513
ARF10;Afrikaans;female;19;size;3;3;low;big;s;0.865942545235157
ARF10;Afrikaans;female;19;size;3;4;high;small;k;0.8803944475948811
ARF10;Afrikaans;female;19;size;3;5;low;small;s;1.13638202752918
ARF10;Afrikaans;female;19;size;3;6;high;big;k;0.8135084146633744
ARF10;Afrikaans;female;19;size;3;7;low;small;s;0.7484866986051202
ARF10;Afrikaans;female;19;size;3;8;low;small;s;2.1313476245850325
ARF10;Afrikaans;female;19;size;3;9;high;big;k;1.0681353565305471
ARF10;Afrikaans;female;19;size;3;10;high;big;k;0.9608442354947329
ARF10;Afrikaans;female;19;size;3;11;low;small;s;1.42646886408329
ARF10;Afrikaans;female;19;size;3;12;high;small;k;0.8072175830602646
ARF10;Afrikaans;female;19;size;3;13;high;small;k;0.7212794506922364
ARF10;Afrikaans;female;19;size;3;14;low;big;s;0.5597344879060984
ARF10;Afrikaans;female;19;size;3;15;high;big;k;1.1647304445505142
ARF10;Afrikaans;female;19;size;3;16;high;big;k;0.6748026050627232
ARF10;Afrikaans;female;19;size;4;1;high;big;k;0.7821884611621499
ARF10;Afrikaans;female;19;size;4;2;high;small;k;0.7219579936936498
ARF10;Afrikaans;female;19;size;4;3;low;small;s;0.8146310308948159
ARF10;Afrikaans;female;19;size;4;4;high;small;k;0.9355482757091522
ARF10;Afrikaans;female;19;size;4;5;high;big;k;1.469568389467895
ARF10;Afrikaans;female;19;size;4;6;high;big;k;0.6679287534207106
ARF10;Afrikaans;female;19;size;4;7;low;big;s;0.9869845258072019
ARF10;Afrikaans;female;19;size;4;8;high;big;k;1.3676069295033813
ARF10;Afrikaans;female;19;size;4;9;low;big;s;0.626524600200355
ARF10;Afrikaans;female;19;size;4;10;high;small;k;0.810099121183157
ARF10;Afrikaans;female;19;size;4;11;low;small;s;0.7220854917541146
ARF10;Afrikaans;female;19;size;4;12;low;big;s;0.8374358415603638
ARF10;Afrikaans;female;19;size;4;13;low;big;s;0.6764004770666361
ARF10;Afrikaans;female;19;size;4;14;high;small;k;0.8964094845578074
ARF10;Afrikaans;female;19;size;4;15;low;small;s;1.6964922994375229
ARF10;Afrikaans;female;19;size;4;16;low;small;s;0.7717063715681434
ARF10;Afrikaans;female;19;height;5;1;low;high;s;1.0319211296737194
ARF10;Afrikaans;female;19;height;5;2;high;high;k;0.7378080328926444
ARF10;Afrikaans;female;19;height;5;3;high;high;k;0.8163279807195067
ARF10;Afrikaans;female;19;height;5;4;low;high;s;1.043449256569147
ARF10;Afrikaans;female;19;height;5;5;high;low;k;0.8067885097116232
ARF10;Afrikaans;female;19;height;5;6;high;low;k;0.6140017500147223
ARF10;Afrikaans;female;19;height;5;7;high;low;k;0.6767213931307197
ARF10;Afrikaans;female;19;height;5;8;high;low;k;0.8151437873020768
ARF10;Afrikaans;female;19;height;5;9;high;low;k;0.8597847372293472
ARF10;Afrikaans;female;19;height;5;10;low;high;s;0.7519220449030399
ARF10;Afrikaans;female;19;height;5;11;low;low;s;0.7973508788272738
ARF10;Afrikaans;female;19;height;5;12;low;high;s;0.6967240069061518
ARF10;Afrikaans;female;19;height;5;13;low;high;s;0.8509936770424247
ARF10;Afrikaans;female;19;height;5;14;low;low;s;0.7700188951566815
ARF10;Afrikaans;female;19;height;5;15;low;high;s;0.7270764745771885
ARF10;Afrikaans;female;19;height;5;16;high;low;k;0.8619928639382124
ARF10;Afrikaans;female;19;height;6;1;low;high;s;0.797352853231132
ARF10;Afrikaans;female;19;height;6;2;high;low;k;0.7612629663199186
ARF10;Afrikaans;female;19;height;6;3;high;high;k;1.627108408138156
ARF10;Afrikaans;female;19;height;6;4;high;low;k;0.729336311109364
ARF10;Afrikaans;female;19;height;6;5;low;high;s;0.5962869990617037
ARF10;Afrikaans;female;19;height;6;6;low;low;s;1.0899655753746629
ARF10;Afrikaans;female;19;height;6;7;high;high;k;0.7926437091082335
ARF10;Afrikaans;female;19;height;6;8;high;low;k;0.8098895186558366
ARF10;Afrikaans;female;19;height;6;9;low;high;s;0.7492114258930087
ARF10;Afrikaans;female;19;height;6;10;high;high;k;0.792753049172461
ARF10;Afrikaans;female;19;height;6;11;low;high;s;0.7386819683015347
ARF10;Afrikaans;female;19;height;6;12;high;high;k;0.6448634210973978
ARF10;Afrikaans;female;19;height;6;13;low;low;s;0.8521881336346269
ARF10;Afrikaans;female;19;height;6;14;low;low;s;0.7884189002215862
ARF10;Afrikaans;female;19;height;6;15;high;low;k;1.2735100965946913
ARF10;Afrikaans;female;19;height;6;16;low;low;s;2.5418444769456983
ARF10;Afrikaans;female;19;height;7;1;low;low;s;0.8442970607429743
ARF10;Afrikaans;female;19;height;7;2;high;low;k;0.7408995693549514
ARF10;Afrikaans;female;19;height;7;3;low;low;s;0.6743719521909952
ARF10;Afrikaans;female;19;height;7;4;high;high;k;1.1645157095044851
ARF10;Afrikaans;female;19;height;7;5;low;low;s;0.6692586038261652
ARF10;Afrikaans;female;19;height;7;6;low;high;s;0.7925438424572349
ARF10;Afrikaans;female;19;height;7;7;high;high;k;0.68544692825526
ARF10;Afrikaans;female;19;height;7;8;high;high;k;1.0432147858664393
ARF10;Afrikaans;female;19;height;7;9;high;high;k;0.643625938333571
ARF10;Afrikaans;female;19;height;7;10;low;high;s;0.7443570205941796
ARF10;Afrikaans;female;19;height;7;11;low;low;s;0.8441103529185057
ARF10;Afrikaans;female;19;height;7;12;low;high;s;0.9988556737080216
ARF10;Afrikaans;female;19;height;7;13;low;high;s;0.6266007833182812
ARF10;Afrikaans;female;19;height;7;14;high;low;k;0.7666135495528579
ARF10;Afrikaans;female;19;height;7;15;high;low;k;0.56042171549052
ARF10;Afrikaans;female;19;height;7;16;high;low;k;0.7848892118781805
ARF10;Afrikaans;female;19;size;8;1;low;small;s;0.9668571772053838
ARF10;Afrikaans;female;19;size;8;2;high;big;k;0.9257609136402607
ARF10;Afrikaans;female;19;size;8;3;low;small;s;0.7509024543687701
ARF10;Afrikaans;female;19;size;8;4;low;small;s;0.8653011070564389
ARF10;Afrikaans;female;19;size;8;5;high;small;k;0.7071914905682206
ARF10;Afrikaans;female;19;size;8;6;high;big;k;2.297935279086232
ARF10;Afrikaans;female;19;size;8;7;low;big;s;1.0638939691707492
ARF10;Afrikaans;female;19;size;8;8;low;big;s;0.8479416146874428
ARF10;Afrikaans;female;19;size;8;9;low;small;s;0.6876763701438904
ARF10;Afrikaans;female;19;size;8;10;low;big;s;0.7312839142978191
ARF10;Afrikaans;female;19;size;8;11;high;small;k;0.6808558097109199
ARF10;Afrikaans;female;19;size;8;12;high;small;k;0.6298979735001922
ARF10;Afrikaans;female;19;size;8;13;high;big;k;0.7854477576911449
ARF10;Afrikaans;female;19;size;8;14;high;big;k;0.8666345095261931
ARF10;Afrikaans;female;19;size;8;15;high;big;k;0.7413752200081944
ARF10;Afrikaans;female;19;size;8;16;low;small;s;0.7536837309598923
ARF10;Afrikaans;female;19;size;9;1;low;small;s;1.9882235871627927
ARF10;Afrikaans;female;19;size;9;2;high;small;k;0.6210512556135654
ARF10;Afrikaans;female;19;size;9;3;low;small;s;0.8933779485523701
ARF10;Afrikaans;female;19;size;9;4;high;big;k;0.6414114963263273
ARF10;Afrikaans;female;19;size;9;5;low;small;s;1.558755949139595
ARF10;Afrikaans;female;19;size;9;6;low;big;s;0.7997686080634594
ARF10;Afrikaans;female;19;size;9;7;high;small;k;0.6449589459225535
ARF10;Afrikaans;female;19;size;9;8;high;small;k;0.7103457888588309
ARF10;Afrikaans;female;19;size;9;9;high;big;k;0.7311879955232143
ARF10;Afrikaans;female;19;size;9;10;low;small;s;0.6750781266018748
ARF10;Afrikaans;female;19;size;9;11;low;big;s;0.7259984631091356
ARF10;Afrikaans;female;19;size;9;12;low;big;s;0.614194774068892
ARF10;Afrikaans;female;19;size;9;13;high;big;k;1.3539354111999273
ARF10;Afrikaans;female;19;size;9;14;high;big;k;2.184787134639919
ARF10;Afrikaans;female;19;size;9;15;low;big;s;0.7651206748560071
ARF10;Afrikaans;female;19;size;9;16;high;small;s;0.6938227312639356
ARF10;Afrikaans;female;19;height;10;1;high;low;k;0.9725128868594766
ARF10;Afrikaans;female;19;height;10;2;low;high;s;0.8450537603348494
ARF10;Afrikaans;female;19;height;10;3;low;high;s;1.397114277817309
ARF10;Afrikaans;female;19;height;10;4;high;low;k;0.6897175256162882
ARF10;Afrikaans;female;19;height;10;5;low;low;s;0.7437657127156854
ARF10;Afrikaans;female;19;height;10;6;high;high;k;0.6949362689629197
ARF10;Afrikaans;female;19;height;10;7;high;high;k;0.6121398033574224
ARF10;Afrikaans;female;19;height;10;8;high;high;k;0.6803789734840393
ARF10;Afrikaans;female;19;height;10;9;low;low;s;0.6544052604585886
ARF10;Afrikaans;female;19;height;10;10;high;high;k;0.6489334953948855
ARF10;Afrikaans;female;19;height;10;11;low;low;s;0.7239284925162792
ARF10;Afrikaans;female;19;height;10;12;low;low;s;0.710123554803431
ARF10;Afrikaans;female;19;height;10;13;high;low;k;0.873031129129231
ARF10;Afrikaans;female;19;height;10;14;high;high;k;0.6447528963908553
ARF10;Afrikaans;female;19;height;10;15;low;high;s;0.6486275782808661
ARF10;Afrikaans;female;19;height;10;16;low;low;s;0.5606380281969905
ARF10;Afrikaans;female;19;height;11;1;high;high;k;1.1235414184629917
ARF10;Afrikaans;female;19;height;11;2;high;high;k;0.7571202609688044
ARF10;Afrikaans;female;19;height;11;3;high;low;k;0.9495138684287667
ARF10;Afrikaans;female;19;height;11;4;low;low;s;0.6649216907098889
ARF10;Afrikaans;female;19;height;11;5;high;low;k;2.273072734475136
ARF10;Afrikaans;female;19;height;11;6;low;high;s;0.6984027987346053
ARF10;Afrikaans;female;19;height;11;7;high;low;k;0.9818652551621199
ARF10;Afrikaans;female;19;height;11;8;low;high;s;0.7627613665536046
ARF10;Afrikaans;female;19;height;11;9;low;high;s;1.0937313120812178
ARF10;Afrikaans;female;19;height;11;10;high;high;k;1.1603078749030828
ARF10;Afrikaans;female;19;height;11;11;low;low;s;0.9449815638363361
ARF10;Afrikaans;female;19;height;11;12;low;low;s;0.8668630579486489
ARF10;Afrikaans;female;19;height;11;13;low;low;s;0.695809019729495
ARF10;Afrikaans;female;19;height;11;14;high;high;k;0.9980026604607701
ARF10;Afrikaans;female;19;height;11;15;high;low;s;0.9091435158625245
ARF10;Afrikaans;female;19;height;11;16;low;high;s;1.1175016351044178
ARF10;Afrikaans;female;19;height;12;1;low;low;s;1.6306980941444635
ARF10;Afrikaans;female;19;height;12;2;high;high;k;0.6123928250744939
ARF10;Afrikaans;female;19;height;12;3;low;low;s;1.268934371881187
ARF10;Afrikaans;female;19;height;12;4;high;high;k;0.7978896871209145
ARF10;Afrikaans;female;19;height;12;5;low;low;s;0.7918037204071879
ARF10;Afrikaans;female;19;height;12;6;high;high;k;0.6919753886759281
ARF10;Afrikaans;female;19;height;12;7;high;low;k;0.8394912071526051
ARF10;Afrikaans;female;19;height;12;8;low;low;s;0.8157193046063185
ARF10;Afrikaans;female;19;height;12;9;low;high;s;0.9325167397037148
ARF10;Afrikaans;female;19;height;12;10;low;low;s;1.16971945296973
ARF10;Afrikaans;female;19;height;12;11;low;low;s;0.7131428541615605
ARF10;Afrikaans;female;19;height;12;12;low;high;s;0.7129506198689342
ARF10;Afrikaans;female;19;height;12;13;high;high;k;1.0517697976902127
ARF10;Afrikaans;female;19;height;12;14;high;high;k;0.6421133279800415
ARF10;Afrikaans;female;19;height;12;15;high;low;k;0.8056469466537237
ARF10;Afrikaans;female;19;height;12;16;high;high;k;0.8131421050056815
ARF10;Afrikaans;female;19;size;13;1;low;big;s;1.0869182497262955
ARF10;Afrikaans;female;19;size;13;2;low;big;s;2.0918583124876022
ARF10;Afrikaans;female;19;size;13;3;high;small;k;1.1748556960374117
ARF10;Afrikaans;female;19;size;13;4;low;small;s;1.349817574955523
ARF10;Afrikaans;female;19;size;13;5;high;big;k;1.8593355333432555
ARF10;Afrikaans;female;19;size;13;6;high;big;s;0.7424334939569235
ARF10;Afrikaans;female;19;size;13;7;high;big;k;0.8649344015866518
ARF10;Afrikaans;female;19;size;13;8;high;small;k;0.6675162594765425
ARF10;Afrikaans;female;19;size;13;9;low;small;s;1.2186045544221997
ARF10;Afrikaans;female;19;size;13;10;low;small;s;0.9360057692974806
ARF10;Afrikaans;female;19;size;13;11;low;small;s;2.274039825424552
ARF10;Afrikaans;female;19;size;13;12;high;small;k;0.7536904411390424
ARF10;Afrikaans;female;19;size;13;13;low;big;s;3.4764181608334184
ARF10;Afrikaans;female;19;size;13;14;high;big;k;1.0979423047974706
ARF10;Afrikaans;female;19;size;13;15;high;big;k;0.704457581974566
ARF10;Afrikaans;female;19;size;13;16;low;small;s;0.8472366239875555
ARF10;Afrikaans;female;19;height;14;1;high;low;k;1.3143892576918006
ARF10;Afrikaans;female;19;height;14;2;high;high;k;1.4305717004463077
ARF10;Afrikaans;female;19;height;14;3;low;high;s;0.7350535988807678
ARF10;Afrikaans;female;19;height;14;4;low;low;s;0.8086200626567006
ARF10;Afrikaans;female;19;height;14;5;low;high;s;0.7394864307716489
ARF10;Afrikaans;female;19;height;14;6;low;low;s;0.8023312035948038
ARF10;Afrikaans;female;19;height;14;7;low;high;s;0.556474007666111
ARF10;Afrikaans;female;19;height;14;8;low;high;s;0.6569019351154566
ARF10;Afrikaans;female;19;height;14;9;high;high;k;0.900783502496779
ARF10;Afrikaans;female;19;height;14;10;low;low;s;0.7870503664016724
ARF10;Afrikaans;female;19;height;14;11;high;high;k;0.6977759655565023
ARF10;Afrikaans;female;19;height;14;12;low;low;s;1.1881893249228597
ARF10;Afrikaans;female;19;height;14;13;high;low;k;1.8470337325707078
ARF10;Afrikaans;female;19;height;14;14;high;high;k;0.864072703756392
ARF10;Afrikaans;female;19;height;14;15;high;low;k;0.7607265273109078
ARF10;Afrikaans;female;19;height;14;16;high;low;k;0.6743628736585379
ARF10;Afrikaans;female;19;height;15;1;low;low;s;0.8625841718167067
ARF10;Afrikaans;female;19;height;15;2;high;high;k;0.7872647056356072
ARF10;Afrikaans;female;19;height;15;3;high;low;k;0.7767435377463698
ARF10;Afrikaans;female;19;height;15;4;low;low;s;0.8410551324486732
ARF10;Afrikaans;female;19;height;15;5;low;low;s;0.8141522221267223
ARF10;Afrikaans;female;19;height;15;6;high;low;k;0.7980941580608487
ARF10;Afrikaans;female;19;height;15;7;low;high;s;1.4464781880378723
ARF10;Afrikaans;female;19;height;15;8;high;low;k;0.6730630239471793
ARF10;Afrikaans;female;19;height;15;9;high;high;k;0.6981722749769688
ARF10;Afrikaans;female;19;height;15;10;high;high;k;0.6713384427130222
ARF10;Afrikaans;female;19;height;15;11;low;low;s;0.654995777644217
ARF10;Afrikaans;female;19;height;15;12;high;high;k;0.9161381544545293
ARF10;Afrikaans;female;19;height;15;13;low;high;s;0.6382244359701872
ARF10;Afrikaans;female;19;height;15;14;low;high;s;1.040963633917272
ARF10;Afrikaans;female;19;height;15;15;high;high;k;0.7473092153668404
ARF10;Afrikaans;female;19;height;15;16;low;low;s;0.6844672057777643
ARF10;Afrikaans;female;19;size;16;1;high;small;k;0.8967607961967587
ARF10;Afrikaans;female;19;size;16;2;low;small;s;1.5831495523452759
ARF10;Afrikaans;female;19;size;16;3;high;big;k;1.5099407155066729
ARF10;Afrikaans;female;19;size;16;4;low;small;s;1.2299755783751607
ARF10;Afrikaans;female;19;size;16;5;low;big;s;0.9502342538908124
ARF10;Afrikaans;female;19;size;16;6;low;small;s;0.9049534434452653
ARF10;Afrikaans;female;19;size;16;7;high;big;k;0.9473965307697654
ARF10;Afrikaans;female;19;size;16;8;low;small;s;0.6718093575909734
ARF10;Afrikaans;female;19;size;16;9;low;big;s;0.7008580276742578
ARF10;Afrikaans;female;19;size;16;10;high;big;k;0.7098661893978715
ARF10;Afrikaans;female;19;size;16;11;high;big;k;0.6287453584372997
ARF10;Afrikaans;female;19;size;16;12;low;small;s;0.7439804468303919
ARF10;Afrikaans;female;19;size;16;13;high;big;k;0.6644428819417953
ARF10;Afrikaans;female;19;size;16;14;high;big;k;0.8057156298309565
ARF10;Afrikaans;female;19;size;16;15;high;small;k;1.168095133267343
ARF10;Afrikaans;female;19;size;16;16;low;small;s;0.7998897908255458
ARF10;Afrikaans;female;19;height;17;1;low;low;s;2.338848781771958
ARF10;Afrikaans;female;19;height;17;2;high;high;k;0.6927139321342111
ARF10;Afrikaans;female;19;height;17;3;low;low;s;0.825212987139821
ARF10;Afrikaans;female;19;height;17;4;high;high;k;0.7225710116326809
ARF10;Afrikaans;female;19;height;17;5;low;low;s;0.6203083712607622
ARF10;Afrikaans;female;19;height;17;6;high;low;k;0.8473305702209473
ARF10;Afrikaans;female;19;height;17;7;low;high;s;0.5377124296501279
ARF10;Afrikaans;female;19;height;17;8;high;low;k;0.7499819407239556
ARF10;Afrikaans;female;19;height;17;9;low;high;s;0.8800127422437072
ARF10;Afrikaans;female;19;height;17;10;high;high;k;1.3982791295275092
ARF10;Afrikaans;female;19;height;17;11;low;high;s;0.8159083817154169
ARF10;Afrikaans;female;19;height;17;12;low;low;s;1.1413512993603945
ARF10;Afrikaans;female;19;height;17;13;high;low;k;0.7771205063909292
ARF10;Afrikaans;female;19;height;17;14;high;high;k;0.9984534429386258
ARF10;Afrikaans;female;19;height;17;15;high;low;k;0.6546598616987467
ARF10;Afrikaans;female;19;height;17;16;low;high;s;0.810486352071166
ARF10;Afrikaans;female;19;size;18;1;high;small;k;1.1086632069200277
ARF10;Afrikaans;female;19;size;18;2;high;big;k;0.7623492665588856
ARF10;Afrikaans;female;19;size;18;3;high;big;k;0.5956376669928432
ARF10;Afrikaans;female;19;size;18;4;low;big;s;0.710635126568377
ARF10;Afrikaans;female;19;size;18;5;high;big;k;1.01742541231215
ARF10;Afrikaans;female;19;size;18;6;low;small;s;0.6488091545179486
ARF10;Afrikaans;female;19;size;18;7;high;small;k;0.8842691294848919
ARF10;Afrikaans;female;19;size;18;8;low;small;s;0.7285606637597084
ARF10;Afrikaans;female;19;size;18;9;low;small;s;0.8898861557245255
ARF10;Afrikaans;female;19;size;18;10;high;big;k;0.6672600787132978
ARF10;Afrikaans;female;19;size;18;11;low;big;s;0.8333839243277907
ARF10;Afrikaans;female;19;size;18;12;low;small;s;0.9661415293812752
ARF10;Afrikaans;female;19;size;18;13;high;small;k;0.6952366586774588
ARF10;Afrikaans;female;19;size;18;14;low;big;s;0.962029218673706
ARF10;Afrikaans;female;19;size;18;15;low;small;s;0.7392953801900148
ARF10;Afrikaans;female;19;size;18;16;high;big;k;0.7795548141002655
ARF10;Afrikaans;female;19;size;19;1;high;small;k;0.9237892301753163
ARF10;Afrikaans;female;19;size;19;2;high;big;k;0.7329441541805863
ARF10;Afrikaans;female;19;size;19;3;low;big;s;0.6759796934202313
ARF10;Afrikaans;female;19;size;19;4;low;big;k;0.6617441046983004
ARF10;Afrikaans;female;19;size;19;5;high;small;k;1.9248179011046886
ARF10;Afrikaans;female;19;size;19;6;low;big;s;0.6902733072638512
ARF10;Afrikaans;female;19;size;19;7;high;small;k;0.7571399975568056
ARF10;Afrikaans;female;19;size;19;8;low;big;s;0.3870324455201626
ARF10;Afrikaans;female;19;size;19;9;low;small;s;0.8712773388251662
ARF10;Afrikaans;female;19;size;19;10;low;big;s;0.8157299626618624
ARF10;Afrikaans;female;19;size;19;11;high;big;k;2.0258537149056792
ARF10;Afrikaans;female;19;size;19;12;high;small;k;0.6113811293616891
ARF10;Afrikaans;female;19;size;19;13;low;big;s;0.8468600502237678
ARF10;Afrikaans;female;19;size;19;14;high;small;k;0.9967166250571609
ARF10;Afrikaans;female;19;size;19;15;high;small;k;0.5755517659708858
ARF10;Afrikaans;female;19;size;19;16;low;small;s;0.6836366904899478
ARF10;Afrikaans;female;19;size;20;1;low;big;s;1.4824453135952353
ARF10;Afrikaans;female;19;size;20;2;low;big;s;0.8548655956983566
ARF10;Afrikaans;female;19;size;20;3;high;small;k;0.8226547334343195
ARF10;Afrikaans;female;19;size;20;4;high;big;k;0.7174209523946047
ARF10;Afrikaans;female;19;size;20;5;high;small;k;1.2632620828226209
ARF10;Afrikaans;female;19;size;20;6;high;big;k;2.0509692830964923
ARF10;Afrikaans;female;19;size;20;7;high;small;k;0.7687660185620189
ARF10;Afrikaans;female;19;size;20;8;high;big;k;0.7180422591045499
ARF10;Afrikaans;female;19;size;20;9;low;small;s;1.421078808605671
ARF10;Afrikaans;female;19;size;20;10;low;small;s;0.8255619294941425
ARF10;Afrikaans;female;19;size;20;11;low;small;s;0.686053236015141
ARF10;Afrikaans;female;19;size;20;12;low;small;s;0.7503316728398204
ARF10;Afrikaans;female;19;size;20;13;low;small;s;0.6527221258729696
ARF10;Afrikaans;female;19;size;20;14;high;big;k;0.6510184658691287
ARF10;Afrikaans;female;19;size;20;15;low;big;s;1.4075943930074573
ARF10;Afrikaans;female;19;size;20;16;high;big;k;0.7098405323922634
