participant;language;gender;age;condition;block;trial;sound;visual;key;RT
ARF1;Afrikaans;female;21;size;1;1;high;small;k;0.9323458215221763
ARF1;Afrikaans;female;21;size;1;2;high;big;k;0.6779667707160115
ARF1;Afrikaans;female;21;size;1;3;low;big;s;0.7257892554625869
ARF1;Afrikaans;female;21;size;1;4;low;big;s;0.6950290305539966
ARF1;Afrikaans;female;21;size;1;5;high;small;k;0.6648944551125169
ARF1;Afrikaans;female;21;size;1;6;high;big;k;0.5860255649313331
ARF1;Afrikaans;female;21;size;1;7;low;small;s;1.1635770397260785
ARF1;Afrikaans;female;21;size;1;8;low;small;s;0.6249768594279885
ARF1;Afrikaans;female;21;size;1;9;high;small;k;0.6702631944790483
ARF1;Afrikaans;female;21;size;1;10;low;big;s;0.7727409629151225
ARF1;Afrikaans;female;21;size;1;11;low;big;s;0.9448520923033357
ARF1;Afrikaans;female;21;size;1;12;low;big;s;1.0851518278941512
ARF1;Afrikaans;female;21;size;1;13;high;small;k;0.7006800035014749
ARF1;Afrikaans;female;21;size;1;14;high;big;k;0.9095421945676208
ARF1;Afrikaans;female;21;size;1;15;low;small;s;0.5954730631783605
ARF1;Afrikaans;female;21;size;1;16;high;small;k;0.6479439046233892
ARF1;Afrikaans;female;21;height;2;1;high;high;k;1.146502542309463
ARF1;Afrikaans;female;21;height;2;2;low;high;s;0.6833339324221015
ARF1;Afrikaans;female;21;height;2;3;high;high;k;1.7712224312126637
ARF1;Afrikaans;female;21;height;2;4;low;high;s;0.6592036141082644
ARF1;Afrikaans;female;21;height;2;5;low;low;s;0.8779865857213736
ARF1;Afrikaans;female;21;height;2;6;high;low;k;0.6535561932250857
ARF1;Afrikaans;female;21;height;2;7;low;low;s;0.9394928254187107
ARF1;Afrikaans;female;21;height;2;8;high;low;k;0.5970815941691399
ARF1;Afrikaans;female;21;height;2;9;high;high;k;0.652993306517601
ARF1;Afrikaans;female;21;height;2;10;low;low;s;0.5978228989988565
ARF1;Afrikaans;female;21;height;2;11;high;low;k;0.6413203133270144
ARF1;Afrikaans;female;21;height;2;12;low;high;s;0.5815445752814412
ARF1;Afrikaans;female;21;height;2;13;high;low;k;0.569359615445137
ARF1;Afrikaans;female;21;height;2;14;low;high;s;0.6984706921502948
ARF1;Afrikaans;female;21;height;2;15;high;low;k;0.9436880303546786
ARF1;Afrikaans;female;21;height;2;16;low;high;s;0.577662393450737
ARF1;Afrikaans;female;21;height;3;1;low;low;s;1.5127069922164083
ARF1;Afrikaans;female;21;height;3;2;low;high;s;0.7095713252201676
ARF1;Afrikaans;female;21;height;3;3;high;high;k;0.8896769480779767
ARF1;Afrikaans;female;21;height;3;4;low;high;s;0.6631971104070544
ARF1;Afrikaans;female;21;height;3;5;high;high;k;0.7604624517261982
ARF1;Afrikaans;female;21;height;3;6;high;high;k;0.5601394819095731
ARF1;Afrikaans;female;21;height;3;7;high;high;k;0.5672967499122024
ARF1;Afrikaans;female;21;height;3;8;low;low;s;0.5524769583716989
ARF1;Afrikaans;female;21;height;3;9;low;low;s;0.5574237313121557
ARF1;Afrikaans;female;21;height;3;10;low;low;s;0.5234811827540398
ARF1;Afrikaans;female;21;height;3;11;high;low;k;0.593835717998445
ARF1;Afrikaans;female;21;height;3;12;low;low;s;0.7009227629750967
ARF1;Afrikaans;female;21;height;3;13;high;low;k;0.6032520337030292
ARF1;Afrikaans;female;21;height;3;14;high;low;k;0.6064986987039447
ARF1;Afrikaans;female;21;height;3;15;low;high;s;0.6836726116016507
ARF1;Afrikaans;female;21;height;3;16;high;high;k;0.6411189995706081
ARF1;Afrikaans;female;21;height;4;1;high;high;k;0.9562246948480606
ARF1;Afrikaans;female;21;height;4;2;high;low;k;0.639616652391851
ARF1;Afrikaans;female;21;height;4;3;low;low;s;0.6267870962619781
ARF1;Afrikaans;female;21;height;4;4;high;low;k;0.6201599529013038
ARF1;Afrikaans;female;21;height;4;5;low;high;s;0.5054814359173179
ARF1;Afrikaans;female;21;height;4;6;high;low;k;1.117145192809403
ARF1;Afrikaans;female;21;height;4;7;low;high;s;0.5175223182886839
ARF1;Afrikaans;female;21;height;4;8;low;low;s;0.6292660096660256
ARF1;Afrikaans;female;21;height;4;9;high;high;k;0.5300112217664719
ARF1;Afrikaans;female;21;height;4;10;high;low;k;0.728676320053637
ARF1;Afrikaans;female;21;height;4;11;low;high;s;0.4763388196006417
ARF1;Afrikaans;female;21;height;4;12;high;high;k;0.725740703754127
ARF1;Afrikaans;female;21;height;4;13;low;high;s;0.6798204286023974
ARF1;Afrikaans;female;21;height;4;14;low;low;s;0.6970251863822341
ARF1;Afrikaans;female;21;height;4;15;low;high;s;0.6428964752703905
ARF1;Afrikaans;female;21;height;4;16;high;low;k;0.6020433660596609
ARF1;Afrikaans;female;21;size;5;1;low;small;s;0.9942748174071312
ARF1;Afrikaans;female;21;size;5;2;high;big;k;0.6418180698528886
ARF1;Afrikaans;female;21;size;5;3;low;big;s;0.6677980981767178
ARF1;Afrikaans;female;21;size;5;4;low;big;s;0.8829759899526834
ARF1;Afrikaans;female;21;size;5;5;low;big;s;0.5229060584679246
ARF1;Afrikaans;female;21;size;5;6;high;big;k;0.5800055181607604
ARF1;Afrikaans;female;21;size;5;7;low;small;s;0.6903996216133237
ARF1;Afrikaans;female;21;size;5;8;high;small;s;0.6432568645104766
ARF1;Afrikaans;female;21;size;5;9;high;small;k;0.7617563810199499
ARF1;Afrikaans;female;21;size;5;10;high;small;k;0.6666387729346752
ARF1;Afrikaans;female;21;size;5;11;high;big;k;0.6191158890724182
ARF1;Afrikaans;female;21;size;5;12;low;small;s;0.5522701190784574
ARF1;Afrikaans;female;21;size;5;13;high;big;k;0.7126087825745344
ARF1;Afrikaans;female;21;size;5;14;high;big;k;0.6232325406745076
ARF1;Afrikaans;female;21;size;5;15;low;small;s;0.5727965412661433
ARF1;Afrikaans;female;21;size;5;16;low;small;s;0.6773549374192953
ARF1;Afrikaans;female;21;height;6;1;high;high;k;0.8458704594522715
ARF1;Afrikaans;female;21;height;6;2;high;low;k;0.5869235787540674
ARF1;Afrikaans;female;21;height;6;3;low;low;s;0.640494929626584
ARF1;Afrikaans;female;21;height;6;4;low;high;s;0.7820542529225349
ARF1;Afrikaans;female;21;height;6;5;low;high;s;0.6371365552768111
ARF1;Afrikaans;female;21;height;6;6;low;high;s;0.5506505370140076
ARF1;Afrikaans;female;21;height;6;7;low;high;s;0.6447086865082383
ARF1;Afrikaans;female;21;height;6;8;high;high;k;0.5710684070363641
ARF1;Afrikaans;female;21;height;6;9;high;low;k;0.6417260970920324
ARF1;Afrikaans;female;21;height;6;10;high;high;k;0.6209979681298137
ARF1;Afrikaans;female;21;height;6;11;high;high;k;0.5374526958912611
ARF1;Afrikaans;female;21;height;6;12;high;low;k;0.6336672632023692
ARF1;Afrikaans;female;21;height;6;13;low;low;s;0.582272064872086
ARF1;Afrikaans;female;21;height;6;14;low;low;s;0.6160081699490547
ARF1;Afrikaans;female;21;height;6;15;low;low;s;0.567818583920598
ARF1;Afrikaans;female;21;height;6;16;high;low;k;0.7046099482104182
ARF1;Afrikaans;female;21;size;7;1;high;big;k;0.7025699764490128
ARF1;Afrikaans;female;21;size;7;2;high;small;k;0.5491955569013953
ARF1;Afrikaans;female;21;size;7;3;low;big;s;0.5625212909653783
ARF1;Afrikaans;female;21;size;7;4;high;small;k;0.6542971041053534
ARF1;Afrikaans;female;21;size;7;5;low;small;s;0.49138795025646687
ARF1;Afrikaans;female;21;size;7;6;high;big;k;0.5885936869308352
ARF1;Afrikaans;female;21;size;7;7;high;small;k;0.6749087879434228
ARF1;Afrikaans;female;21;size;7;8;low;big;s;0.5916757481172681
ARF1;Afrikaans;female;21;size;7;9;low;big;s;0.6613485841080546
ARF1;Afrikaans;female;21;size;7;10;low;small;s;0.6072052670642734
ARF1;Afrikaans;female;21;size;7;11;low;small;s;0.5355331180617213
ARF1;Afrikaans;female;21;size;7;12;low;small;s;0.5594415972009301
ARF1;Afrikaans;female;21;size;7;13;high;big;k;0.5841063810512424
ARF1;Afrikaans;female;21;size;7;14;high;big;k;0.6576112676411867
ARF1;Afrikaans;female;21;size;7;15;high;small;k;0.6216658521443605
ARF1;Afrikaans;female;21;size;7;16;low;big;s;0.5747358556836843
ARF1;Afrikaans;female;21;size;8;1;low;big;s;0.7204982778057456
ARF1;Afrikaans;female;21;size;8;2;low;small;s;0.5570132099092007
ARF1;Afrikaans;female;21;size;8;3;high;big;k;0.6176944607868791
ARF1;Afrikaans;female;21;size;8;4;low;big;s;0.5422301292419434
ARF1;Afrikaans;female;21;size;8;5;low;big;s;0.5900427447631955
ARF1;Afrikaans;female;21;size;8;6;high;big;k;0.6710668681189418
ARF1;Afrikaans;female;21;size;8;7;high;small;k;0.6474832519888878
ARF1;Afrikaans;female;21;size;8;8;high;small;k;0.5965309431776404
ARF1;Afrikaans;female;21;size;8;9;low;small;s;0.6436476493254304
ARF1;Afrikaans;female;21;size;8;10;high;small;k;0.6843882594257593
ARF1;Afrikaans;female;21;size;8;11;high;small;k;0.5763968853279948
ARF1;Afrikaans;female;21;size;8;12;low;big;s;0.5193720292299986
ARF1;Afrikaans;female;21;size;8;13;high;small;k;0.7788142990320921
ARF1;Afrikaans;female;21;size;8;14;high;big;k;0.6651139259338379
ARF1;Afrikaans;female;21;size;8;15;low;big;s;0.6421575378626585
ARF1;Afrikaans;female;21;size;8;16;low;small;s;0.7132285106927156
ARF1;Afrikaans;female;21;size;9;1;low;small;s;0.7241882253438234
ARF1;Afrikaans;female;21;size;9;2;high;small;k;0.5588656840845942
ARF1;Afrikaans;female;21;size;9;3;low;small;s;0.6466645793989301
ARF1;Afrikaans;female;21;size;9;4;high;big;k;0.6462576119229198
ARF1;Afrikaans;female;21;size;9;5;high;small;k;0.6342005450278521
ARF1;Afrikaans;female;21;size;9;6;high;small;k;0.6286186501383781
ARF1;Afrikaans;female;21;size;9;7;high;small;k;0.5739613929763436
ARF1;Afrikaans;female;21;size;9;8;low;big;s;0.5696572428569198
ARF1;Afrikaans;female;21;size;9;9;low;big;s;0.66689258441329
ARF1;Afrikaans;female;21;size;9;10;low;big;s;0.6510855704545975
ARF1;Afrikaans;female;21;size;9;11;high;big;k;0.5405466007068753
ARF1;Afrikaans;female;21;size;9;12;low;small;s;0.6059559425339103
ARF1;Afrikaans;female;21;size;9;13;high;small;k;0.7050930997356772
ARF1;Afrikaans;female;21;size;9;14;high;big;k;0.5923799490556121
ARF1;Afrikaans;female;21;size;9;15;low;big;s;0.625450536608696
ARF1;Afrikaans;female;21;size;9;16;low;big;s;0.5975742181763053
ARF1;Afrikaans;female;21;size;10;1;high;small;k;0.6088580070063472
ARF1;Afrikaans;female;21;size;10;2;low;small;s;0.6235475372523069
ARF1;Afrikaans;female;21;size;10;3;low;big;s;1.8456742782145739
ARF1;Afrikaans;female;21;size;10;4;high;big;k;0.5873210737481713
ARF1;Afrikaans;female;21;size;10;5;low;big;s;0.7807386126369238
ARF1;Afrikaans;female;21;size;10;6;low;big;s;0.5720011573284864
ARF1;Afrikaans;female;21;size;10;7;low;big;s;0.6184053728356957
ARF1;Afrikaans;female;21;size;10;8;low;small;s;0.5593034410849214
ARF1;Afrikaans;female;21;size;10;9;low;big;s;0.5911168092861772
ARF1;Afrikaans;female;21;size;10;10;high;small;k;0.5853111017495394
ARF1;Afrikaans;female;21;size;10;11;high;big;k;0.547547553665936
ARF1;Afrikaans;female;21;size;10;12;high;small;k;0.49056927766650915
ARF1;Afrikaans;female;21;size;10;13;high;big;k;0.6141012227162719
ARF1;Afrikaans;female;21;size;10;14;high;small;k;0.6667421916499734
ARF1;Afrikaans;female;21;size;10;15;high;small;k;0.49911442026495934
ARF1;Afrikaans;female;21;size;10;16;low;small;s;0.5776564730331302
ARF1;Afrikaans;female;21;height;11;1;low;low;s;0.7241566460579634
ARF1;Afrikaans;female;21;height;11;2;low;low;s;0.5072127273306251
ARF1;Afrikaans;female;21;height;11;3;high;high;k;0.5035879099741578
ARF1;Afrikaans;female;21;height;11;4;low;low;s;0.6556080058217049
ARF1;Afrikaans;female;21;height;11;5;low;low;s;0.47282334230840206
ARF1;Afrikaans;female;21;height;11;6;high;low;k;0.6019975766539574
ARF1;Afrikaans;female;21;height;11;7;low;low;s;0.9411076717078686
ARF1;Afrikaans;female;21;height;11;8;high;high;k;0.4891296923160553
ARF1;Afrikaans;female;21;height;11;9;high;high;k;0.6350855324417353
ARF1;Afrikaans;female;21;height;11;10;low;high;s;0.6034403201192617
ARF1;Afrikaans;female;21;height;11;11;low;low;s;0.7176637118682265
ARF1;Afrikaans;female;21;height;11;12;high;low;k;0.639165080152452
ARF1;Afrikaans;female;21;height;11;13;high;high;k;0.7080148998647928
ARF1;Afrikaans;female;21;height;11;14;low;high;s;0.5833871811628342
ARF1;Afrikaans;female;21;height;11;15;high;high;k;0.8260948164388537
ARF1;Afrikaans;female;21;height;11;16;high;high;k;0.5769183253869414
ARF1;Afrikaans;female;21;size;12;1;low;small;s;0.7902796631678939
ARF1;Afrikaans;female;21;size;12;2;low;small;s;0.5617069602012634
ARF1;Afrikaans;female;21;size;12;3;high;small;k;0.5678967414423823
ARF1;Afrikaans;female;21;size;12;4;high;big;k;0.567307012155652
ARF1;Afrikaans;female;21;size;12;5;low;small;s;0.5375648001208901
ARF1;Afrikaans;female;21;size;12;6;high;small;s;0.5416802680119872
ARF1;Afrikaans;female;21;size;12;7;low;big;s;0.8571163536980748
ARF1;Afrikaans;female;21;size;12;8;low;big;s;0.7469815891236067
ARF1;Afrikaans;female;21;size;12;9;high;big;k;0.5690872510895133
ARF1;Afrikaans;female;21;size;12;10;low;small;s;0.8828263869509101
ARF1;Afrikaans;female;21;size;12;11;low;small;s;0.6330818766728044
ARF1;Afrikaans;female;21;size;12;12;high;big;k;0.5827445592731237
ARF1;Afrikaans;female;21;size;12;13;low;big;s;0.6968688732013106
ARF1;Afrikaans;female;21;size;12;14;high;small;k;0.6570543013513088
ARF1;Afrikaans;female;21;size;12;15;high;big;k;0.6290137758478522
ARF1;Afrikaans;female;21;size;12;16;high;big;k;0.6869058553129435
ARF1;Afrikaans;female;21;size;13;1;high;small;k;0.7821406982839108
ARF1;Afrikaans;female;21;size;13;2;high;big;k;0.5896081458777189
ARF1;Afrikaans;female;21;size;13;3;high;small;k;0.5950933322310448
ARF1;Afrikaans;female;21;size;13;4;low;big;s;0.4790782555937767
ARF1;Afrikaans;female;21;size;13;5;low;small;s;0.5860918797552586
ARF1;Afrikaans;female;21;size;13;6;high;big;k;0.5759283388033509
ARF1;Afrikaans;female;21;size;13;7;low;big;s;0.595803058706224
ARF1;Afrikaans;female;21;size;13;8;low;small;s;0.6716273864731193
ARF1;Afrikaans;female;21;size;13;9;high;small;k;0.6296433722600341
ARF1;Afrikaans;female;21;size;13;10;low;small;s;0.5426572281867266
ARF1;Afrikaans;female;21;size;13;11;low;small;s;0.6045499090105295
ARF1;Afrikaans;female;21;size;13;12;high;big;k;0.4793695667758584
ARF1;Afrikaans;female;21;size;13;13;low;small;s;0.6373477373272181
ARF1;Afrikaans;female;21;size;13;14;high;big;k;0.23882821667939425
ARF1;Afrikaans;female;21;size;13;15;low;big;s;0.6247262042015791
ARF1;Afrikaans;female;21;size;13;16;high;big;k;1.1240533851087093
ARF1;Afrikaans;female;21;height;14;1;low;high;s;1.0003394689410925
ARF1;Afrikaans;female;21;height;14;2;low;high;s;0.5834653386846185
ARF1;Afrikaans;female;21;height;14;3;low;low;s;0.6813642233610153
ARF1;Afrikaans;female;21;height;14;4;low;high;s;0.7176866065710783
ARF1;Afrikaans;female;21;height;14;5;high;high;k;0.5796482861042023
ARF1;Afrikaans;female;21;height;14;6;high;high;k;0.6276886630803347
ARF1;Afrikaans;female;21;height;14;7;high;low;k;1.0322337560355663
ARF1;Afrikaans;female;21;height;14;8;low;high;s;0.765331856906414
ARF1;Afrikaans;female;21;height;14;9;high;high;k;1.1113394852727652
ARF1;Afrikaans;female;21;height;14;10;high;low;k;0.6665886417031288
ARF1;Afrikaans;female;21;height;14;11;high;low;k;0.6714517306536436
ARF1;Afrikaans;female;21;height;14;12;high;low;k;0.5461048111319542
ARF1;Afrikaans;female;21;height;14;13;low;low;s;0.5612060464918613
ARF1;Afrikaans;female;21;height;14;14;low;low;s;0.7459233142435551
ARF1;Afrikaans;female;21;height;14;15;high;low;k;0.6748645771294832
ARF1;Afrikaans;female;21;height;14;16;low;high;s;0.6274376139044762
ARF1;Afrikaans;female;21;size;15;1;high;big;k;0.7594416765496135
ARF1;Afrikaans;female;21;size;15;2;low;small;s;0.6729635521769524
ARF1;Afrikaans;female;21;size;15;3;low;small;s;0.7427749373018742
ARF1;Afrikaans;female;21;size;15;4;low;small;s;1.312087974511087
ARF1;Afrikaans;female;21;size;15;5;low;big;s;0.6941187800839543
ARF1;Afrikaans;female;21;size;15;6;low;small;s;0.6248201504349709
ARF1;Afrikaans;female;21;size;15;7;high;big;k;0.5800363076850772
ARF1;Afrikaans;female;21;size;15;8;high;big;k;0.7356725372374058
ARF1;Afrikaans;female;21;size;15;9;high;small;k;0.6625529080629349
ARF1;Afrikaans;female;21;size;15;10;low;big;s;0.659516635350883
ARF1;Afrikaans;female;21;size;15;11;high;big;k;0.9545537978410721
ARF1;Afrikaans;female;21;size;15;12;high;small;k;0.5801756475120783
ARF1;Afrikaans;female;21;size;15;13;high;big;k;0.8432608917355537
ARF1;Afrikaans;female;21;size;15;14;low;big;s;0.7292538117617369
ARF1;Afrikaans;female;21;size;15;15;low;small;s;1.0149966310709715
ARF1;Afrikaans;female;21;size;15;16;high;small;k;0.588018168695271
ARF1;Afrikaans;female;21;height;16;1;low;low;k;0.21919822972267866
ARF1;Afrikaans;female;21;height;16;2;high;high;k;1.3258115975186229
ARF1;Afrikaans;female;21;height;16;3;low;low;s;0.5574237303808331
ARF1;Afrikaans;female;21;height;16;4;high;high;k;1.1055835131555796
ARF1;Afrikaans;female;21;height;16;5;high;low;k;0.9687960976734757
ARF1;Afrikaans;female;21;height;16;6;low;high;s;0.6246172590181231
ARF1;Afrikaans;female;21;height;16;7;low;high;s;0.6914247386157513
ARF1;Afrikaans;female;21;height;16;8;high;high;k;0.5847640037536621
ARF1;Afrikaans;female;21;height;16;9;low;low;s;0.6239087162539363
ARF1;Afrikaans;female;21;height;16;10;low;high;s;0.6358690746128559
ARF1;Afrikaans;female;21;height;16;11;high;low;k;0.6564586525782943
ARF1;Afrikaans;female;21;height;16;12;high;low;s;0.5773387141525745
ARF1;Afrikaans;female;21;height;16;13;low;high;s;1.7269639754667878
ARF1;Afrikaans;female;21;height;16;14;high;low;k;0.7304565580561757
ARF1;Afrikaans;female;21;height;16;15;low;low;s;0.7904083458706737
ARF1;Afrikaans;female;21;height;16;16;high;high;k;0.6616181852295995
ARF1;Afrikaans;female;21;height;17;1;high;high;k;0.7892892826348543
ARF1;Afrikaans;female;21;height;17;2;high;low;k;0.6882147844880819
ARF1;Afrikaans;female;21;height;17;3;low;high;s;0.7449060911312699
ARF1;Afrikaans;female;21;height;17;4;low;low;s;0.6999201457947493
ARF1;Afrikaans;female;21;height;17;5;low;high;s;0.6496925642713904
ARF1;Afrikaans;female;21;height;17;6;low;low;s;0.6128080822527409
ARF1;Afrikaans;female;21;height;17;7;high;low;k;0.6604355704039335
ARF1;Afrikaans;female;21;height;17;8;high;low;k;0.5605160556733608
ARF1;Afrikaans;female;21;height;17;9;high;low;k;0.5863563492894173
ARF1;Afrikaans;female;21;height;17;10;low;low;s;0.685524296015501
ARF1;Afrikaans;female;21;height;17;11;high;high;k;0.8675404172390699
ARF1;Afrikaans;female;21;height;17;12;high;high;k;0.599141301587224
ARF1;Afrikaans;female;21;height;17;13;low;low;s;0.44765606615692377
ARF1;Afrikaans;female;21;height;17;14;low;high;s;0.7807780867442489
ARF1;Afrikaans;female;21;height;17;15;low;high;s;0.6080945963039994
ARF1;Afrikaans;female;21;height;17;16;high;high;k;0.5447382517158985
ARF1;Afrikaans;female;21;size;18;1;low;small;s;0.9221100434660912
ARF1;Afrikaans;female;21;size;18;2;low;small;s;0.7698515290394425
ARF1;Afrikaans;female;21;size;18;3;high;small;k;0.7574999928474426
ARF1;Afrikaans;female;21;size;18;4;low;small;s;1.1788547188043594
ARF1;Afrikaans;female;21;size;18;5;low;big;s;0.6814408004283905
ARF1;Afrikaans;female;21;size;18;6;high;big;k;0.9122322890907526
ARF1;Afrikaans;female;21;size;18;7;low;big;s;0.6452672313898802
ARF1;Afrikaans;female;21;size;18;8;high;big;k;0.6785837356001139
ARF1;Afrikaans;female;21;size;18;9;low;small;s;0.6022056005895138
ARF1;Afrikaans;female;21;size;18;10;high;big;k;0.6865955963730812
ARF1;Afrikaans;female;21;size;18;11;low;small;s;0.6262921039015055
ARF1;Afrikaans;female;21;size;18;12;high;big;k;0.830210680142045
ARF1;Afrikaans;female;21;size;18;13;high;big;k;0.7960837921127677
ARF1;Afrikaans;female;21;size;18;14;high;small;k;0.7009124998003244
ARF1;Afrikaans;female;21;size;18;15;high;small;k;0.7410456193611026
ARF1;Afrikaans;female;21;size;18;16;low;big;s;0.6341180456802249
ARF1;Afrikaans;female;21;height;19;1;high;low;k;0.8579788412898779
ARF1;Afrikaans;female;21;height;19;2;low;high;s;0.622462815605104
ARF1;Afrikaans;female;21;height;19;3;high;high;k;0.6600432069972157
ARF1;Afrikaans;female;21;height;19;4;low;low;s;0.6138659622520208
ARF1;Afrikaans;female;21;height;19;5;low;low;s;0.9295179657638073
ARF1;Afrikaans;female;21;height;19;6;high;low;k;0.7549295024946332
ARF1;Afrikaans;female;21;height;19;7;high;high;s;0.5909091802313924
ARF1;Afrikaans;female;21;height;19;8;high;low;k;1.100103854201734
ARF1;Afrikaans;female;21;height;19;9;low;high;s;1.2184944236651063
ARF1;Afrikaans;female;21;height;19;10;low;high;s;0.8178504593670368
ARF1;Afrikaans;female;21;height;19;11;low;high;s;0.6331296386197209
ARF1;Afrikaans;female;21;height;19;12;high;low;k;0.5913343066349626
ARF1;Afrikaans;female;21;height;19;13;low;low;s;1.0660377545282245
ARF1;Afrikaans;female;21;height;19;14;high;low;k;0.625283170491457
ARF1;Afrikaans;female;21;height;19;15;low;high;s;0.5904714232310653
ARF1;Afrikaans;female;21;height;19;16;high;high;k;0.8527727304026484
ARF1;Afrikaans;female;21;height;20;1;high;high;k;0.7152384826913476
ARF1;Afrikaans;female;21;height;20;2;high;high;k;0.6036218963563442
ARF1;Afrikaans;female;21;height;20;3;low;low;s;0.5662136068567634
ARF1;Afrikaans;female;21;height;20;4;high;high;k;0.6531843561679125
ARF1;Afrikaans;female;21;height;20;5;low;high;s;0.7126691769808531
ARF1;Afrikaans;female;21;height;20;6;high;high;k;0.553342605009675
ARF1;Afrikaans;female;21;height;20;7;low;low;s;0.5370532283559442
ARF1;Afrikaans;female;21;height;20;8;low;high;s;0.7556025199592113
ARF1;Afrikaans;female;21;height;20;9;high;low;k;0.8075262624770403
ARF1;Afrikaans;female;21;height;20;10;high;low;k;0.6557781361043453
ARF1;Afrikaans;female;21;height;20;11;low;low;s;0.613305838778615
ARF1;Afrikaans;female;21;height;20;12;high;low;k;0.639161922968924
ARF1;Afrikaans;female;21;height;20;13;low;low;s;0.8095642598345876
ARF1;Afrikaans;female;21;height;20;14;low;low;s;0.5965037075802684
ARF1;Afrikaans;female;21;height;20;15;low;high;s;0.7580320909619331
ARF1;Afrikaans;female;21;height;20;16;high;high;k;0.623273198492825
