participant;language;gender;age;condition;block;trial;sound;visual;key;RT
ARF16;Afrikaans;male;20;size;1;1;low;small;s;1.1894611483439803
ARF16;Afrikaans;male;20;size;1;2;low;big;s;1.1779547315090895
ARF16;Afrikaans;male;20;size;1;3;high;big;k;0.6430223947390914
ARF16;Afrikaans;male;20;size;1;4;high;small;s;0.6190069429576397
ARF16;Afrikaans;male;20;size;1;5;high;small;k;0.7055300669744611
ARF16;Afrikaans;male;20;size;1;6;high;big;k;0.7098784260451794
ARF16;Afrikaans;male;20;size;1;7;high;small;k;0.775701841339469
ARF16;Afrikaans;male;20;size;1;8;low;big;s;0.6664587743580341
ARF16;Afrikaans;male;20;size;1;9;high;big;k;0.6477035125717521
ARF16;Afrikaans;male;20;size;1;10;low;big;s;0.5976973744109273
ARF16;Afrikaans;male;20;size;1;11;low;big;s;0.8019941039383411
ARF16;Afrikaans;male;20;size;1;12;low;small;s;0.6185881327837706
ARF16;Afrikaans;male;20;size;1;13;low;small;s;0.6285179927945137
ARF16;Afrikaans;male;20;size;1;14;high;small;k;0.6733863092958927
ARF16;Afrikaans;male;20;size;1;15;high;big;k;0.6392120532691479
ARF16;Afrikaans;male;20;size;1;16;low;small;s;0.5542319333180785
ARF16;Afrikaans;male;20;size;2;1;high;small;k;0.6323496494442225
ARF16;Afrikaans;male;20;size;2;2;low;big;s;0.5926294196397066
ARF16;Afrikaans;male;20;size;2;3;low;big;s;0.7673801174387336
ARF16;Afrikaans;male;20;size;2;4;high;big;k;0.5736002139747143
ARF16;Afrikaans;male;20;size;2;5;high;small;k;1.0505883665755391
ARF16;Afrikaans;male;20;size;2;6;high;big;k;0.6863465216010809
ARF16;Afrikaans;male;20;size;2;7;high;small;k;0.6438142256811261
ARF16;Afrikaans;male;20;size;2;8;high;big;k;0.6356543404981494
ARF16;Afrikaans;male;20;size;2;9;low;big;s;0.6856813989579678
ARF16;Afrikaans;male;20;size;2;10;high;small;s;0.6358667053282261
ARF16;Afrikaans;male;20;size;2;11;low;small;k;0.8918669167906046
ARF16;Afrikaans;male;20;size;2;12;low;big;k;1.2354299742728472
ARF16;Afrikaans;male;20;size;2;13;high;big;s;0.6116988882422447
ARF16;Afrikaans;male;20;size;2;14;low;small;k;0.7381447395309806
ARF16;Afrikaans;male;20;size;2;15;low;small;s;0.7772219525650144
ARF16;Afrikaans;male;20;size;2;16;low;small;s;0.6064347513020039
ARF16;Afrikaans;male;20;size;3;1;low;small;s;1.216247613541782
ARF16;Afrikaans;male;20;size;3;2;low;big;s;0.7239221762865782
ARF16;Afrikaans;male;20;size;3;3;low;small;s;0.7099475050345063
ARF16;Afrikaans;male;20;size;3;4;high;small;k;0.561084863729775
ARF16;Afrikaans;male;20;size;3;5;low;big;s;0.7973268013447523
ARF16;Afrikaans;male;20;size;3;6;low;big;s;0.7045294232666492
ARF16;Afrikaans;male;20;size;3;7;high;big;k;0.5534424716606736
ARF16;Afrikaans;male;20;size;3;8;high;big;k;0.6101325945928693
ARF16;Afrikaans;male;20;size;3;9;high;big;k;0.4888296965509653
ARF16;Afrikaans;male;20;size;3;10;high;small;k;0.5895785419270396
ARF16;Afrikaans;male;20;size;3;11;high;big;k;0.3859382504597306
ARF16;Afrikaans;male;20;size;3;12;low;big;s;0.5566536104306579
ARF16;Afrikaans;male;20;size;3;13;low;small;s;0.4417232545092702
ARF16;Afrikaans;male;20;size;3;14;high;small;s;0.6064268574118614
ARF16;Afrikaans;male;20;size;3;15;high;small;k;1.674448530189693
ARF16;Afrikaans;male;20;size;3;16;low;small;k;1.8252769336104393
ARF16;Afrikaans;male;20;height;4;1;high;low;k;0.8633835026994348
ARF16;Afrikaans;male;20;height;4;2;low;high;s;1.4863638104870915
ARF16;Afrikaans;male;20;height;4;3;low;high;s;0.7349896524101496
ARF16;Afrikaans;male;20;height;4;4;high;low;k;0.7789741642773151
ARF16;Afrikaans;male;20;height;4;5;high;high;k;0.7285314528271556
ARF16;Afrikaans;male;20;height;4;6;low;low;s;0.5939024286344647
ARF16;Afrikaans;male;20;height;4;7;high;high;s;0.39125409722328186
ARF16;Afrikaans;male;20;height;4;8;low;low;k;0.6810579113662243
ARF16;Afrikaans;male;20;height;4;9;low;low;k;0.9149425132200122
ARF16;Afrikaans;male;20;height;4;10;high;high;k;1.9422476552426815
ARF16;Afrikaans;male;20;height;4;11;low;high;k;0.7468110648915172
ARF16;Afrikaans;male;20;height;4;12;high;low;s;0.8026059372350574
ARF16;Afrikaans;male;20;height;4;13;high;high;s;0.9031775472685695
ARF16;Afrikaans;male;20;height;4;14;high;low;s;0.8569209622219205
ARF16;Afrikaans;male;20;height;4;15;low;high;k;0.8833726942539215
ARF16;Afrikaans;male;20;height;4;16;low;low;k;3.777071953751147
ARF16;Afrikaans;male;20;height;5;1;low;low;k;0.7693020636215806
ARF16;Afrikaans;male;20;height;5;2;high;low;s;0.6773545425385237
ARF16;Afrikaans;male;20;height;5;3;low;low;s;0.7459734445437789
ARF16;Afrikaans;male;20;height;5;4;high;low;k;0.7325379764661193
ARF16;Afrikaans;male;20;height;5;5;high;high;k;1.0821502907201648
ARF16;Afrikaans;male;20;height;5;6;low;low;s;1.6641345974057913
ARF16;Afrikaans;male;20;height;5;7;low;high;s;1.0748501308262348
ARF16;Afrikaans;male;20;height;5;8;high;low;s;1.2349073514342308
ARF16;Afrikaans;male;20;height;5;9;low;high;k;2.1009043687954545
ARF16;Afrikaans;male;20;height;5;10;low;high;k;0.7228323239833117
ARF16;Afrikaans;male;20;height;5;11;high;high;k;0.7776968143880367
ARF16;Afrikaans;male;20;height;5;12;high;low;s;0.5003708507865667
ARF16;Afrikaans;male;20;height;5;13;high;high;s;0.6688993982970715
ARF16;Afrikaans;male;20;height;5;14;low;low;k;0.7593761505559087
ARF16;Afrikaans;male;20;height;5;15;low;high;k;1.603186902590096
ARF16;Afrikaans;male;20;height;5;16;high;high;k;0.8684159321710467
ARF16;Afrikaans;male;20;height;6;1;high;low;k;0.618691947311163
ARF16;Afrikaans;male;20;height;6;2;high;low;k;0.5817845724523067
ARF16;Afrikaans;male;20;height;6;3;low;low;s;0.6737040672451258
ARF16;Afrikaans;male;20;height;6;4;low;high;s;0.4826667569577694
ARF16;Afrikaans;male;20;height;6;5;high;high;k;0.647177335806191
ARF16;Afrikaans;male;20;height;6;6;low;high;s;0.7549235820770264
ARF16;Afrikaans;male;20;height;6;7;high;low;k;0.6403591427952051
ARF16;Afrikaans;male;20;height;6;8;low;low;k;0.9564812704920769
ARF16;Afrikaans;male;20;height;6;9;low;low;s;0.6307194093242288
ARF16;Afrikaans;male;20;height;6;10;high;low;s;1.094051044434309
ARF16;Afrikaans;male;20;height;6;11;high;high;s;0.970218313857913
ARF16;Afrikaans;male;20;height;6;12;high;high;s;0.6565818088129163
ARF16;Afrikaans;male;20;height;6;13;high;low;k;0.9306251872330904
ARF16;Afrikaans;male;20;height;6;14;low;high;s;0.679293068125844
ARF16;Afrikaans;male;20;height;6;15;low;high;k;1.1791176097467542
ARF16;Afrikaans;male;20;height;6;16;low;high;k;0.5514084212481976
ARF16;Afrikaans;male;20;size;7;1;high;big;k;0.43446769937872887
ARF16;Afrikaans;male;20;size;7;2;high;big;k;0.2905470933765173
ARF16;Afrikaans;male;20;size;7;3;low;small;s;0.6840783953666687
ARF16;Afrikaans;male;20;size;7;4;high;small;k;1.0341249136254191
ARF16;Afrikaans;male;20;size;7;5;low;small;s;0.6702189855277538
ARF16;Afrikaans;male;20;size;7;6;low;small;k;0.4726796606555581
ARF16;Afrikaans;male;20;size;7;7;low;big;s;0.1932951733469963
ARF16;Afrikaans;male;20;size;7;8;high;big;s;0.5666126804426312
ARF16;Afrikaans;male;20;size;7;9;high;big;k;0.4587622256949544
ARF16;Afrikaans;male;20;size;7;10;low;small;k;0.8962318561971188
ARF16;Afrikaans;male;20;size;7;11;high;big;s;0.8325001215562224
ARF16;Afrikaans;male;20;size;7;12;low;small;s;0.5805198531597853
ARF16;Afrikaans;male;20;size;7;13;high;small;s;0.6565841771662235
ARF16;Afrikaans;male;20;size;7;14;low;big;k;0.7769227456301451
ARF16;Afrikaans;male;20;size;7;15;high;big;k;0.6063905414193869
ARF16;Afrikaans;male;20;size;7;16;low;small;k;0.7067541284486651
ARF16;Afrikaans;male;20;height;8;1;high;low;k;0.710548285394907
ARF16;Afrikaans;male;20;height;8;2;low;high;s;0.5691330395638943
ARF16;Afrikaans;male;20;height;8;3;low;low;s;0.737111727707088
ARF16;Afrikaans;male;20;height;8;4;low;low;s;0.7462833095341921
ARF16;Afrikaans;male;20;height;8;5;high;low;k;0.5956937177106738
ARF16;Afrikaans;male;20;height;8;6;high;low;k;0.6412145253270864
ARF16;Afrikaans;male;20;height;8;7;high;low;k;0.6926120910793543
ARF16;Afrikaans;male;20;height;8;8;low;high;s;0.6132470238953829
ARF16;Afrikaans;male;20;height;8;9;low;high;s;0.43208786379545927
ARF16;Afrikaans;male;20;height;8;10;high;high;k;0.47932575177401304
ARF16;Afrikaans;male;20;height;8;11;low;low;k;0.38065319415181875
ARF16;Afrikaans;male;20;height;8;12;low;low;s;0.517949023284018
ARF16;Afrikaans;male;20;height;8;13;high;high;s;0.645476832985878
ARF16;Afrikaans;male;20;height;8;14;low;high;s;0.6095381285995245
ARF16;Afrikaans;male;20;height;8;15;high;high;k;0.5910868095234036
ARF16;Afrikaans;male;20;height;8;16;high;high;k;1.3131146701052785
ARF16;Afrikaans;male;20;height;9;1;low;high;s;0.7464771224185824
ARF16;Afrikaans;male;20;height;9;2;high;high;k;0.5699627650901675
ARF16;Afrikaans;male;20;height;9;3;high;high;k;0.609902860596776
ARF16;Afrikaans;male;20;height;9;4;high;low;s;0.5211814781650901
ARF16;Afrikaans;male;20;height;9;5;low;high;s;0.9830383965745568
ARF16;Afrikaans;male;20;height;9;6;high;high;s;0.7246342711150646
ARF16;Afrikaans;male;20;height;9;7;high;high;s;0.6314974240958691
ARF16;Afrikaans;male;20;height;9;8;high;low;s;0.806246149353683
ARF16;Afrikaans;male;20;height;9;9;low;low;k;1.2792467270046473
ARF16;Afrikaans;male;20;height;9;10;low;low;k;0.6078944681212306
ARF16;Afrikaans;male;20;height;9;11;low;low;s;0.6693900488317013
ARF16;Afrikaans;male;20;height;9;12;high;low;k;0.6668949527665973
ARF16;Afrikaans;male;20;height;9;13;low;low;s;0.655657347291708
ARF16;Afrikaans;male;20;height;9;14;low;low;s;0.5927178394049406
ARF16;Afrikaans;male;20;height;9;15;high;high;s;0.9009469207376242
ARF16;Afrikaans;male;20;height;9;16;low;high;k;1.0420475658029318
ARF16;Afrikaans;male;20;height;10;1;low;low;k;0.8962421184405684
ARF16;Afrikaans;male;20;height;10;2;high;high;s;0.35850363597273827
ARF16;Afrikaans;male;20;height;10;3;low;low;k;0.7578118303790689
ARF16;Afrikaans;male;20;height;10;4;high;low;s;0.7436808459460735
ARF16;Afrikaans;male;20;height;10;5;high;high;s;0.7557864645496011
ARF16;Afrikaans;male;20;height;10;6;low;high;s;1.6397603349760175
ARF16;Afrikaans;male;20;height;10;7;high;low;s;1.026972383260727
ARF16;Afrikaans;male;20;height;10;8;low;low;k;0.7555302837863564
ARF16;Afrikaans;male;20;height;10;9;high;high;k;0.7830323968082666
ARF16;Afrikaans;male;20;height;10;10;high;high;k;0.672700266353786
ARF16;Afrikaans;male;20;height;10;11;low;high;k;0.5550063969567418
ARF16;Afrikaans;male;20;height;10;12;high;low;k;0.5832273149862885
ARF16;Afrikaans;male;20;height;10;13;low;high;k;0.5571509711444378
ARF16;Afrikaans;male;20;height;10;14;high;low;k;0.6036728173494339
ARF16;Afrikaans;male;20;height;10;15;low;low;k;0.6081020962446928
ARF16;Afrikaans;male;20;height;10;16;low;high;k;0.6189062865450978
ARF16;Afrikaans;male;20;height;11;1;high;high;k;0.6351064527407289
ARF16;Afrikaans;male;20;height;11;2;high;low;k;1.1354038827121258
ARF16;Afrikaans;male;20;height;11;3;low;high;s;0.6438979087397456
ARF16;Afrikaans;male;20;height;11;4;low;low;s;0.46982338558882475
ARF16;Afrikaans;male;20;height;11;5;low;high;s;0.6229988606646657
ARF16;Afrikaans;male;20;height;11;6;high;high;k;0.5626318156719208
ARF16;Afrikaans;male;20;height;11;7;high;high;k;0.545935076661408
ARF16;Afrikaans;male;20;height;11;8;low;high;s;0.4105110624805093
ARF16;Afrikaans;male;20;height;11;9;high;low;s;0.5660868985578418
ARF16;Afrikaans;male;20;height;11;10;high;high;k;0.8649944011121988
ARF16;Afrikaans;male;20;height;11;11;low;low;k;1.2034192411229014
ARF16;Afrikaans;male;20;height;11;12;low;low;s;0.6958488868549466
ARF16;Afrikaans;male;20;height;11;13;low;low;s;0.6141462214291096
ARF16;Afrikaans;male;20;height;11;14;high;low;k;0.6180098513141274
ARF16;Afrikaans;male;20;height;11;15;low;high;s;0.5309143681079149
ARF16;Afrikaans;male;20;height;11;16;high;low;k;0.528217563405633
ARF16;Afrikaans;male;20;size;12;1;low;small;s;1.0542380521073937
ARF16;Afrikaans;male;20;size;12;2;high;big;k;0.7618905892595649
ARF16;Afrikaans;male;20;size;12;3;high;big;k;0.9086915487423539
ARF16;Afrikaans;male;20;size;12;4;high;big;k;0.9713969817385077
ARF16;Afrikaans;male;20;size;12;5;high;small;k;0.9118134789168835
ARF16;Afrikaans;male;20;size;12;6;high;small;s;0.5895098578184843
ARF16;Afrikaans;male;20;size;12;7;high;small;s;0.6936735231429338
ARF16;Afrikaans;male;20;size;12;8;high;small;k;0.4746351605281234
ARF16;Afrikaans;male;20;size;12;9;low;big;k;0.7465039631351829
ARF16;Afrikaans;male;20;size;12;10;low;small;k;0.7363222651183605
ARF16;Afrikaans;male;20;size;12;11;low;small;k;0.9119287403300405
ARF16;Afrikaans;male;20;size;12;12;low;big;k;0.635847364552319
ARF16;Afrikaans;male;20;size;12;13;high;big;s;0.6502957129850984
ARF16;Afrikaans;male;20;size;12;14;low;small;k;0.6369403740391135
ARF16;Afrikaans;male;20;size;12;15;low;big;k;0.6929385336115956
ARF16;Afrikaans;male;20;size;12;16;low;big;k;0.3604003209620714
ARF16;Afrikaans;male;20;size;13;1;low;small;k;0.41365509666502476
ARF16;Afrikaans;male;20;size;13;2;high;small;k;0.5894151227548718
ARF16;Afrikaans;male;20;size;13;3;high;big;s;0.6384399589151144
ARF16;Afrikaans;male;20;size;13;4;low;small;s;0.8226393386721611
ARF16;Afrikaans;male;20;size;13;5;low;big;s;0.6542047364637256
ARF16;Afrikaans;male;20;size;13;6;high;small;s;0.6589726954698563
ARF16;Afrikaans;male;20;size;13;7;high;small;k;0.6090462934225798
ARF16;Afrikaans;male;20;size;13;8;low;big;s;0.8450016565620899
ARF16;Afrikaans;male;20;size;13;9;high;big;k;0.8186071589589119
ARF16;Afrikaans;male;20;size;13;10;low;small;k;0.9930002307519317
ARF16;Afrikaans;male;20;size;13;11;low;small;k;1.2744365306571126
ARF16;Afrikaans;male;20;size;13;12;low;big;k;0.9055226454511285
ARF16;Afrikaans;male;20;size;13;13;high;big;s;0.6192437810823321
ARF16;Afrikaans;male;20;size;13;14;low;big;k;0.7304964261129498
ARF16;Afrikaans;male;20;size;13;15;high;small;s;0.8066420648247004
ARF16;Afrikaans;male;20;size;13;16;high;big;s;0.7458506841212511
ARF16;Afrikaans;male;20;size;14;1;low;big;k;0.725608074106276
ARF16;Afrikaans;male;20;size;14;2;high;small;k;0.7101306598633528
ARF16;Afrikaans;male;20;size;14;3;low;small;k;1.0312690334394574
ARF16;Afrikaans;male;20;size;14;4;low;big;k;1.1586725022643805
ARF16;Afrikaans;male;20;size;14;5;low;small;k;4.150137227959931
ARF16;Afrikaans;male;20;size;14;6;low;big;s;0.8368603233247995
ARF16;Afrikaans;male;20;size;14;7;low;big;s;0.8240761607885361
ARF16;Afrikaans;male;20;size;14;8;high;small;k;0.6551477499306202
ARF16;Afrikaans;male;20;size;14;9;high;small;k;0.5672833286225796
ARF16;Afrikaans;male;20;size;14;10;high;small;k;0.6863378370180726
ARF16;Afrikaans;male;20;size;14;11;high;big;k;0.6912029003724456
ARF16;Afrikaans;male;20;size;14;12;low;big;s;0.6036747898906469
ARF16;Afrikaans;male;20;size;14;13;high;big;s;0.3927627597004175
ARF16;Afrikaans;male;20;size;14;14;low;small;k;0.22038755472749472
ARF16;Afrikaans;male;20;size;14;15;high;big;k;0.41289326548576355
ARF16;Afrikaans;male;20;size;14;16;high;small;s;0.46966075617820024
ARF16;Afrikaans;male;20;size;15;1;high;big;k;1.447181599214673
ARF16;Afrikaans;male;20;size;15;2;high;small;k;1.2547311512753367
ARF16;Afrikaans;male;20;size;15;3;high;big;k;0.8019400248304009
ARF16;Afrikaans;male;20;size;15;4;low;big;s;0.6861404711380601
ARF16;Afrikaans;male;20;size;15;5;high;small;k;0.9659015331417322
ARF16;Afrikaans;male;20;size;15;6;high;big;s;0.6896985797211528
ARF16;Afrikaans;male;20;size;15;7;low;small;k;3.5336388032883406
ARF16;Afrikaans;male;20;size;15;8;low;big;s;0.6314966352656484
ARF16;Afrikaans;male;20;size;15;9;low;small;k;0.685110617429018
ARF16;Afrikaans;male;20;size;15;10;high;big;s;0.6557473465800285
ARF16;Afrikaans;male;20;size;15;11;low;small;k;0.973823394626379
ARF16;Afrikaans;male;20;size;15;12;low;big;k;0.8464440042153001
ARF16;Afrikaans;male;20;size;15;13;high;small;k;0.831930129788816
ARF16;Afrikaans;male;20;size;15;14;low;small;k;0.9655979843810201
ARF16;Afrikaans;male;20;size;15;15;low;small;s;1.7879124591127038
ARF16;Afrikaans;male;20;size;15;16;high;big;k;0.7290067095309496
ARF16;Afrikaans;male;20;height;16;1;low;low;k;0.340377576649189
ARF16;Afrikaans;male;20;height;16;2;high;low;s;0.6508933361619711
ARF16;Afrikaans;male;20;height;16;3;high;high;k;0.6510504391044378
ARF16;Afrikaans;male;20;height;16;4;low;high;k;0.8793436726555228
ARF16;Afrikaans;male;20;height;16;5;high;low;s;0.9988410696387291
ARF16;Afrikaans;male;20;height;16;6;low;low;k;0.6093482626602054
ARF16;Afrikaans;male;20;height;16;7;low;high;k;0.6115031018853188
ARF16;Afrikaans;male;20;height;16;8;low;low;k;0.6324435956776142
ARF16;Afrikaans;male;20;height;16;9;high;low;k;0.7394347209483385
ARF16;Afrikaans;male;20;height;16;10;high;high;s;0.5444678608328104
ARF16;Afrikaans;male;20;height;16;11;high;low;k;0.8097963621839881
ARF16;Afrikaans;male;20;height;16;12;high;high;s;1.1780297309160233
ARF16;Afrikaans;male;20;height;16;13;low;low;k;0.8191897822543979
ARF16;Afrikaans;male;20;height;16;14;low;high;k;0.6996773863211274
ARF16;Afrikaans;male;20;height;16;15;low;high;s;0.682490786537528
ARF16;Afrikaans;male;20;height;16;16;high;high;k;0.46281887870281935
ARF16;Afrikaans;male;20;size;17;1;high;small;k;1.7992108529433608
ARF16;Afrikaans;male;20;size;17;2;high;small;s;0.1720136310905218
ARF16;Afrikaans;male;20;size;17;3;low;small;k;0.3626921307295561
ARF16;Afrikaans;male;20;size;17;4;high;big;s;1.5328528927639127
ARF16;Afrikaans;male;20;size;17;5;low;big;k;0.763597802259028
ARF16;Afrikaans;male;20;size;17;6;low;big;k;0.5980968428775668
ARF16;Afrikaans;male;20;size;17;7;low;small;s;1.1768376417458057
ARF16;Afrikaans;male;20;size;17;8;high;big;k;2.5623002415522933
ARF16;Afrikaans;male;20;size;17;9;high;big;k;1.0700916443020105
ARF16;Afrikaans;male;20;size;17;10;low;big;s;0.7174146361649036
ARF16;Afrikaans;male;20;size;17;11;low;small;s;0.8831046717241406
ARF16;Afrikaans;male;20;size;17;12;high;big;k;0.5568853178992867
ARF16;Afrikaans;male;20;size;17;13;high;small;k;1.1778236804530025
ARF16;Afrikaans;male;20;size;17;14;high;small;k;0.702966682612896
ARF16;Afrikaans;male;20;size;17;15;low;big;k;0.628772989846766
ARF16;Afrikaans;male;20;size;17;16;low;small;k;0.5598485646769404
ARF16;Afrikaans;male;20;height;18;1;low;low;k;0.1712660100311041
ARF16;Afrikaans;male;20;height;18;2;high;high;s;0.6438292255625129
ARF16;Afrikaans;male;20;height;18;3;high;low;s;0.7500190455466509
ARF16;Afrikaans;male;20;height;18;4;high;high;k;0.5928492853417993
ARF16;Afrikaans;male;20;height;18;5;low;low;s;0.5738181052729487
ARF16;Afrikaans;male;20;height;18;6;high;low;k;0.6087522190064192
ARF16;Afrikaans;male;20;height;18;7;high;low;s;0.7213406339287758
ARF16;Afrikaans;male;20;height;18;8;high;low;k;0.6394631024450064
ARF16;Afrikaans;male;20;height;18;9;low;high;k;0.5778479166328907
ARF16;Afrikaans;male;20;height;18;10;high;low;s;0.7492283992469311
ARF16;Afrikaans;male;20;height;18;11;low;high;k;1.1644320273771882
ARF16;Afrikaans;male;20;height;18;12;low;high;k;0.8677405463531613
ARF16;Afrikaans;male;20;height;18;13;high;high;k;0.8269273042678833
ARF16;Afrikaans;male;20;height;18;14;low;low;s;0.8078704681247473
ARF16;Afrikaans;male;20;height;18;15;low;high;s;0.9834070755168796
ARF16;Afrikaans;male;20;height;18;16;low;high;s;0.7353895148262382
ARF16;Afrikaans;male;20;size;19;1;low;small;s;0.7213106341660023
ARF16;Afrikaans;male;20;size;19;2;high;big;k;0.578437645919621
ARF16;Afrikaans;male;20;size;19;3;high;small;k;0.6525018662214279
ARF16;Afrikaans;male;20;size;19;4;high;small;k;0.4590495899319649
ARF16;Afrikaans;male;20;size;19;5;high;small;k;0.48715169355273247
ARF16;Afrikaans;male;20;size;19;6;low;big;s;0.5473047951236367
ARF16;Afrikaans;male;20;size;19;7;high;small;s;0.3911684397608042
ARF16;Afrikaans;male;20;size;19;8;low;small;k;0.4912399258464575
ARF16;Afrikaans;male;20;size;19;9;high;small;k;0.6812304090708494
ARF16;Afrikaans;male;20;size;19;10;high;big;k;1.1056170659139752
ARF16;Afrikaans;male;20;size;19;11;low;big;s;0.7732655601575971
ARF16;Afrikaans;male;20;size;19;12;low;small;s;2.4837455581873655
ARF16;Afrikaans;male;20;size;19;13;high;big;k;1.0709020281210542
ARF16;Afrikaans;male;20;size;19;14;low;big;s;0.591973771341145
ARF16;Afrikaans;male;20;size;19;15;low;big;s;0.6463262951001525
ARF16;Afrikaans;male;20;size;19;16;low;big;k;0.603177429176867
ARF16;Afrikaans;male;20;height;20;1;high;high;k;0.36947677191346884
ARF16;Afrikaans;male;20;height;20;2;high;high;k;0.3187166964635253
ARF16;Afrikaans;male;20;height;20;3;low;high;s;0.22641628608107567
ARF16;Afrikaans;male;20;height;20;4;high;high;s;0.2994992043823004
ARF16;Afrikaans;male;20;height;20;5;high;low;k;0.40951436571776867
ARF16;Afrikaans;male;20;height;20;6;low;high;k;0.34881732519716024
ARF16;Afrikaans;male;20;height;20;7;low;low;k;0.36525906808674335
ARF16;Afrikaans;male;20;height;20;8;low;low;s;0.31963997334241867
ARF16;Afrikaans;male;20;height;20;9;low;low;s;0.5031197583302855
ARF16;Afrikaans;male;20;height;20;10;low;low;k;2.1054631201550364
ARF16;Afrikaans;male;20;height;20;11;high;high;k;0.9481102041900158
ARF16;Afrikaans;male;20;height;20;12;low;low;s;1.7697457419708371
ARF16;Afrikaans;male;20;height;20;13;high;high;s;0.8915353426709771
ARF16;Afrikaans;male;20;height;20;14;low;low;k;0.8057673405855894
ARF16;Afrikaans;male;20;height;20;15;high;high;k;1.0595771875232458
ARF16;Afrikaans;male;20;height;20;16;high;low;k;1.243612359277904
