participant;language;gender;age;condition;block;trial;sound;visual;key;RT
ARF6;Afrikaans;female;22;height;1;1;low;high;s;0.6797545086592436
ARF6;Afrikaans;female;22;height;1;2;low;high;s;0.5860010916367173
ARF6;Afrikaans;female;22;height;1;3;high;low;k;0.6467111576348543
ARF6;Afrikaans;female;22;height;1;4;high;high;k;1.2138977786526084
ARF6;Afrikaans;female;22;height;1;5;high;high;k;0.6886789882555604
ARF6;Afrikaans;female;22;height;1;6;high;low;k;0.8636732352897525
ARF6;Afrikaans;female;22;height;1;7;low;high;s;0.8168154740706086
ARF6;Afrikaans;female;22;height;1;8;high;low;k;0.6443664543330669
ARF6;Afrikaans;female;22;height;1;9;high;low;k;0.7522386200726032
ARF6;Afrikaans;female;22;height;1;10;high;low;k;0.8097478104755282
ARF6;Afrikaans;female;22;height;1;11;low;low;s;0.844454163685441
ARF6;Afrikaans;female;22;height;1;12;low;low;s;0.7073454363271594
ARF6;Afrikaans;female;22;height;1;13;low;low;s;0.6051676636561751
ARF6;Afrikaans;female;22;height;1;14;low;high;s;1.0599087616428733
ARF6;Afrikaans;female;22;height;1;15;high;high;k;0.8276990046724677
ARF6;Afrikaans;female;22;height;1;16;low;high;s;0.7114849826321006
ARF6;Afrikaans;female;22;height;2;1;low;high;s;1.1740792598575354
ARF6;Afrikaans;female;22;height;2;2;high;low;k;0.5839070416986942
ARF6;Afrikaans;female;22;height;2;3;low;high;s;0.6446893448010087
ARF6;Afrikaans;female;22;height;2;4;high;low;k;0.8761810855939984
ARF6;Afrikaans;female;22;height;2;5;low;low;s;0.8472985979169607
ARF6;Afrikaans;female;22;height;2;6;high;low;k;1.5393241178244352
ARF6;Afrikaans;female;22;height;2;7;high;high;k;0.8568092528730631
ARF6;Afrikaans;female;22;height;2;8;low;low;s;0.69001673348248
ARF6;Afrikaans;female;22;height;2;9;high;high;s;0.8456888822838664
ARF6;Afrikaans;female;22;height;2;10;low;low;s;1.4680960411205888
ARF6;Afrikaans;female;22;height;2;11;low;low;s;0.8572493782266974
ARF6;Afrikaans;female;22;height;2;12;low;high;s;1.2715455191209912
ARF6;Afrikaans;female;22;height;2;13;high;high;k;0.6716937012970448
ARF6;Afrikaans;female;22;height;2;14;high;high;k;0.7362926602363586
ARF6;Afrikaans;female;22;height;2;15;high;low;k;0.8915325794368982
ARF6;Afrikaans;female;22;height;2;16;low;high;s;0.6205787630751729
ARF6;Afrikaans;female;22;size;3;1;low;small;s;1.0704488763585687
ARF6;Afrikaans;female;22;size;3;2;low;big;s;0.6929227448999882
ARF6;Afrikaans;female;22;size;3;3;high;small;k;0.6530343582853675
ARF6;Afrikaans;female;22;size;3;4;high;big;k;0.637939440086484
ARF6;Afrikaans;female;22;size;3;5;high;small;k;0.7844293508678675
ARF6;Afrikaans;female;22;size;3;6;low;small;s;0.6740960357710719
ARF6;Afrikaans;female;22;size;3;7;low;small;s;0.6264701280742884
ARF6;Afrikaans;female;22;size;3;8;high;small;k;0.7630108371376991
ARF6;Afrikaans;female;22;size;3;9;high;small;k;0.6741430079564452
ARF6;Afrikaans;female;22;size;3;10;low;big;s;0.6756275929510593
ARF6;Afrikaans;female;22;size;3;11;low;small;s;0.7166204368695617
ARF6;Afrikaans;female;22;size;3;12;low;big;s;0.7082197656854987
ARF6;Afrikaans;female;22;size;3;13;high;big;k;0.8046241980046034
ARF6;Afrikaans;female;22;size;3;14;low;big;s;1.346544069238007
ARF6;Afrikaans;female;22;size;3;15;high;big;k;0.6613505575805902
ARF6;Afrikaans;female;22;size;3;16;high;big;k;0.7173787159845233
ARF6;Afrikaans;female;22;height;4;1;low;low;s;0.6655323402956128
ARF6;Afrikaans;female;22;height;4;2;low;low;s;0.5573246534913778
ARF6;Afrikaans;female;22;height;4;3;low;high;s;0.7026741858571768
ARF6;Afrikaans;female;22;height;4;4;high;low;k;0.7467411970719695
ARF6;Afrikaans;female;22;height;4;5;high;low;k;0.9300200641155243
ARF6;Afrikaans;female;22;height;4;6;low;low;s;0.764689234085381
ARF6;Afrikaans;female;22;height;4;7;low;high;s;0.8022376522421837
ARF6;Afrikaans;female;22;height;4;8;low;low;s;1.1856377813965082
ARF6;Afrikaans;female;22;height;4;9;high;high;k;0.8779585603624582
ARF6;Afrikaans;female;22;height;4;10;high;high;k;0.7564657973125577
ARF6;Afrikaans;female;22;height;4;11;low;low;s;0.6116404673084617
ARF6;Afrikaans;female;22;height;4;12;high;high;k;1.3953754864633083
ARF6;Afrikaans;female;22;height;4;13;high;low;k;0.614644767716527
ARF6;Afrikaans;female;22;height;4;14;high;high;k;1.7458881828933954
ARF6;Afrikaans;female;22;height;4;15;high;high;k;0.7769389301538467
ARF6;Afrikaans;female;22;height;4;16;low;high;s;0.6607304345816374
ARF6;Afrikaans;female;22;size;5;1;high;big;k;0.7657257979735732
ARF6;Afrikaans;female;22;size;5;2;high;big;k;0.4984023254364729
ARF6;Afrikaans;female;22;size;5;3;low;big;s;0.6671313969418406
ARF6;Afrikaans;female;22;size;5;4;high;small;k;1.087301534600556
ARF6;Afrikaans;female;22;size;5;5;low;big;s;0.6284260209649801
ARF6;Afrikaans;female;22;size;5;6;low;small;s;0.6202341616153717
ARF6;Afrikaans;female;22;size;5;7;low;big;s;0.6861045509576797
ARF6;Afrikaans;female;22;size;5;8;high;big;k;1.3476635264232755
ARF6;Afrikaans;female;22;size;5;9;low;small;s;0.6548327542841434
ARF6;Afrikaans;female;22;size;5;10;high;small;k;0.9268495822325349
ARF6;Afrikaans;female;22;size;5;11;high;small;k;0.5893468344584107
ARF6;Afrikaans;female;22;size;5;12;low;big;s;1.0134662576019764
ARF6;Afrikaans;female;22;size;5;13;high;small;k;0.9695725338533521
ARF6;Afrikaans;female;22;size;5;14;high;big;k;0.5896724881604314
ARF6;Afrikaans;female;22;size;5;15;low;small;s;0.8702285373583436
ARF6;Afrikaans;female;22;size;5;16;low;small;s;0.9290012633427978
ARF6;Afrikaans;female;22;size;6;1;high;small;k;0.5595146222040057
ARF6;Afrikaans;female;22;size;6;2;low;small;s;0.7450541164726019
ARF6;Afrikaans;female;22;size;6;3;high;small;k;0.6716854115948081
ARF6;Afrikaans;female;22;size;6;4;low;big;s;0.6825594697147608
ARF6;Afrikaans;female;22;size;6;5;high;big;k;0.5327159212902188
ARF6;Afrikaans;female;22;size;6;6;high;big;k;0.59105917904526
ARF6;Afrikaans;female;22;size;6;7;low;small;s;0.7009618412703276
ARF6;Afrikaans;female;22;size;6;8;high;big;k;2.2198408525437117
ARF6;Afrikaans;female;22;size;6;9;low;big;s;2.347956811077893
ARF6;Afrikaans;female;22;size;6;10;low;small;s;0.6888222759589553
ARF6;Afrikaans;female;22;size;6;11;high;small;k;1.4675043392926455
ARF6;Afrikaans;female;22;size;6;12;low;big;s;0.5939636109396815
ARF6;Afrikaans;female;22;size;6;13;high;small;k;0.565110333263874
ARF6;Afrikaans;female;22;size;6;14;low;big;s;0.6331529282033443
ARF6;Afrikaans;female;22;size;6;15;low;small;s;0.7306191874668002
ARF6;Afrikaans;female;22;size;6;16;high;big;k;0.8061237819492817
ARF6;Afrikaans;female;22;size;7;1;high;big;k;0.7617295393720269
ARF6;Afrikaans;female;22;size;7;2;high;small;k;0.5655394056811929
ARF6;Afrikaans;female;22;size;7;3;low;big;s;0.5212209513410926
ARF6;Afrikaans;female;22;size;7;4;low;small;s;0.7196424994617701
ARF6;Afrikaans;female;22;size;7;5;high;big;k;0.7256530728191137
ARF6;Afrikaans;female;22;size;7;6;low;big;s;0.5878744861111045
ARF6;Afrikaans;female;22;size;7;7;high;small;k;0.9174514254555106
ARF6;Afrikaans;female;22;size;7;8;low;big;s;0.6643540682271123
ARF6;Afrikaans;female;22;size;7;9;high;big;k;1.177561579272151
ARF6;Afrikaans;female;22;size;7;10;high;big;k;0.6336885783821344
ARF6;Afrikaans;female;22;size;7;11;low;small;s;0.7618274325504899
ARF6;Afrikaans;female;22;size;7;12;low;small;s;0.7437870288267732
ARF6;Afrikaans;female;22;size;7;13;low;small;s;0.6214440139010549
ARF6;Afrikaans;female;22;size;7;14;high;small;k;0.6629054043442011
ARF6;Afrikaans;female;22;size;7;15;high;big;k;1.287259771488607
ARF6;Afrikaans;female;22;size;7;16;low;small;s;0.8211196241900325
ARF6;Afrikaans;female;22;size;8;1;low;small;s;0.7032666774466634
ARF6;Afrikaans;female;22;size;8;2;low;small;s;0.7610352067276835
ARF6;Afrikaans;female;22;size;8;3;low;big;s;0.7202831488102674
ARF6;Afrikaans;female;22;size;8;4;low;big;s;0.6390194240957499
ARF6;Afrikaans;female;22;size;8;5;high;big;k;0.7127422019839287
ARF6;Afrikaans;female;22;size;8;6;high;small;k;0.6723252711817622
ARF6;Afrikaans;female;22;size;8;7;high;small;k;0.58134326338768
ARF6;Afrikaans;female;22;size;8;8;high;small;k;0.5892986766994
ARF6;Afrikaans;female;22;size;8;9;high;big;k;0.679190437309444
ARF6;Afrikaans;female;22;size;8;10;high;big;k;0.6491908598691225
ARF6;Afrikaans;female;22;size;8;11;low;big;s;0.6498184828087687
ARF6;Afrikaans;female;22;size;8;12;low;big;s;0.6274127457290888
ARF6;Afrikaans;female;22;size;8;13;low;big;s;0.6234812214970589
ARF6;Afrikaans;female;22;size;8;14;high;small;k;0.6641468331217766
ARF6;Afrikaans;female;22;size;8;15;low;small;s;0.7324278457090259
ARF6;Afrikaans;female;22;size;8;16;high;small;k;0.5730779841542244
ARF6;Afrikaans;female;22;height;9;1;high;high;k;0.8676418643444777
ARF6;Afrikaans;female;22;height;9;2;low;high;s;0.6676994152367115
ARF6;Afrikaans;female;22;height;9;3;low;low;s;1.2779275346547365
ARF6;Afrikaans;female;22;height;9;4;low;high;s;0.905726327560842
ARF6;Afrikaans;female;22;height;9;5;high;high;k;0.5847718985751271
ARF6;Afrikaans;female;22;height;9;6;low;low;s;1.064348304644227
ARF6;Afrikaans;female;22;height;9;7;high;low;k;0.7073766198009253
ARF6;Afrikaans;female;22;height;9;8;high;low;k;0.5672075403854251
ARF6;Afrikaans;female;22;height;9;9;high;high;k;1.2597659481689334
ARF6;Afrikaans;female;22;height;9;10;high;high;k;0.8516382724046707
ARF6;Afrikaans;female;22;height;9;11;low;high;s;0.653166988864541
ARF6;Afrikaans;female;22;height;9;12;low;low;s;0.6507828114554286
ARF6;Afrikaans;female;22;height;9;13;high;low;k;1.059178113937378
ARF6;Afrikaans;female;22;height;9;14;low;high;s;1.483802399598062
ARF6;Afrikaans;female;22;height;9;15;low;low;s;0.7349422844126821
ARF6;Afrikaans;female;22;height;9;16;high;low;k;0.7531772907823324
ARF6;Afrikaans;female;22;height;10;1;low;high;s;0.5700646061450243
ARF6;Afrikaans;female;22;height;10;2;high;low;k;0.4832746433094144
ARF6;Afrikaans;female;22;height;10;3;low;high;s;1.269151079468429
ARF6;Afrikaans;female;22;height;10;4;low;high;s;0.6849112780764699
ARF6;Afrikaans;female;22;height;10;5;high;high;k;0.72474913764745
ARF6;Afrikaans;female;22;height;10;6;low;low;s;1.13792147859931
ARF6;Afrikaans;female;22;height;10;7;low;low;s;1.0718987248837948
ARF6;Afrikaans;female;22;height;10;8;high;high;k;0.5216796286404133
ARF6;Afrikaans;female;22;height;10;9;low;high;s;0.9026497919112444
ARF6;Afrikaans;female;22;height;10;10;high;high;k;0.7169610904529691
ARF6;Afrikaans;female;22;height;10;11;high;low;k;0.6949524525552988
ARF6;Afrikaans;female;22;height;10;12;high;low;k;0.5201685968786478
ARF6;Afrikaans;female;22;height;10;13;high;low;k;0.5704285483807325
ARF6;Afrikaans;female;22;height;10;14;high;high;k;0.5929215205833316
ARF6;Afrikaans;female;22;height;10;15;low;low;s;0.679621484130621
ARF6;Afrikaans;female;22;height;10;16;low;low;s;0.6634311862289906
ARF6;Afrikaans;female;22;size;11;1;low;big;k;0.4692466827109456
ARF6;Afrikaans;female;22;size;11;2;low;small;s;0.7195532908663154
ARF6;Afrikaans;female;22;size;11;3;low;big;s;0.5875673852860928
ARF6;Afrikaans;female;22;size;11;4;low;big;s;0.614723714068532
ARF6;Afrikaans;female;22;size;11;5;high;small;k;0.6397954663261771
ARF6;Afrikaans;female;22;size;11;6;high;big;k;0.57626030780375
ARF6;Afrikaans;female;22;size;11;7;low;small;s;0.6791264917701483
ARF6;Afrikaans;female;22;size;11;8;high;small;k;1.0860423417761922
ARF6;Afrikaans;female;22;size;11;9;low;small;s;0.5506292209029198
ARF6;Afrikaans;female;22;size;11;10;low;small;s;0.7985630985349417
ARF6;Afrikaans;female;22;size;11;11;high;small;k;1.1238950975239277
ARF6;Afrikaans;female;22;size;11;12;high;big;k;0.8294997690245509
ARF6;Afrikaans;female;22;size;11;13;high;big;k;0.5997981345281005
ARF6;Afrikaans;female;22;size;11;14;low;big;s;0.8281572880223393
ARF6;Afrikaans;female;22;size;11;15;high;big;k;0.7933759354054928
ARF6;Afrikaans;female;22;size;11;16;high;small;k;1.2425675056874752
ARF6;Afrikaans;female;22;height;12;1;high;high;k;0.7236833637580276
ARF6;Afrikaans;female;22;height;12;2;low;low;s;0.5454329792410135
ARF6;Afrikaans;female;22;height;12;3;low;high;s;1.0076135769486427
ARF6;Afrikaans;female;22;height;12;4;low;low;s;0.6906846184283495
ARF6;Afrikaans;female;22;height;12;5;high;low;k;0.8350674537941813
ARF6;Afrikaans;female;22;height;12;6;high;high;k;0.6157113313674927
ARF6;Afrikaans;female;22;height;12;7;low;high;s;0.554929818958044
ARF6;Afrikaans;female;22;height;12;8;low;low;s;0.7610107325017452
ARF6;Afrikaans;female;22;height;12;9;high;high;k;0.6204571854323149
ARF6;Afrikaans;female;22;height;12;10;high;low;k;0.9389374386519194
ARF6;Afrikaans;female;22;height;12;11;high;low;k;0.6856813989579678
ARF6;Afrikaans;female;22;height;12;12;low;low;s;0.6548702539876103
ARF6;Afrikaans;female;22;height;12;13;high;high;k;0.9411909598857164
ARF6;Afrikaans;female;22;height;12;14;low;high;s;0.7570882877334952
ARF6;Afrikaans;female;22;height;12;15;low;high;s;0.7030953634530306
ARF6;Afrikaans;female;22;height;12;16;high;low;k;0.6331292446702719
ARF6;Afrikaans;female;22;height;13;1;high;low;k;0.5501626487821341
ARF6;Afrikaans;female;22;height;13;2;low;high;s;0.4761876380071044
ARF6;Afrikaans;female;22;height;13;3;high;high;k;0.8333519520238042
ARF6;Afrikaans;female;22;height;13;4;low;low;s;0.5726070702075958
ARF6;Afrikaans;female;22;height;13;5;high;high;k;0.9211634788662195
ARF6;Afrikaans;female;22;height;13;6;high;low;k;0.6253494843840599
ARF6;Afrikaans;female;22;height;13;7;low;low;s;0.6157784359529614
ARF6;Afrikaans;female;22;height;13;8;low;high;s;1.1216009194031358
ARF6;Afrikaans;female;22;height;13;9;low;high;s;0.6212505958974361
ARF6;Afrikaans;female;22;height;13;10;high;high;k;0.6588258557021618
ARF6;Afrikaans;female;22;height;13;11;high;low;k;0.8439279869198799
ARF6;Afrikaans;female;22;height;13;12;high;low;k;0.7294776253402233
ARF6;Afrikaans;female;22;height;13;13;low;low;s;0.6661177268251777
ARF6;Afrikaans;female;22;height;13;14;high;high;k;0.6499819019809365
ARF6;Afrikaans;female;22;height;13;15;low;low;s;1.1772607937455177
ARF6;Afrikaans;female;22;height;13;16;low;high;s;0.9767724322155118
ARF6;Afrikaans;female;22;size;14;1;low;big;s;0.556140854023397
ARF6;Afrikaans;female;22;size;14;2;low;small;s;0.5725012822076678
ARF6;Afrikaans;female;22;size;14;3;high;big;k;0.7938488237559795
ARF6;Afrikaans;female;22;size;14;4;high;small;k;0.6220483481884003
ARF6;Afrikaans;female;22;size;14;5;high;small;k;0.6434700200334191
ARF6;Afrikaans;female;22;size;14;6;low;small;s;0.6413589967414737
ARF6;Afrikaans;female;22;size;14;7;high;small;k;0.606465145945549
ARF6;Afrikaans;female;22;size;14;8;high;big;k;0.6986483223736286
ARF6;Afrikaans;female;22;size;14;9;low;small;s;0.7967074671760201
ARF6;Afrikaans;female;22;size;14;10;high;small;k;1.1686181528493762
ARF6;Afrikaans;female;22;size;14;11;low;small;s;0.7917006956413388
ARF6;Afrikaans;female;22;size;14;12;low;big;s;0.6532486975193024
ARF6;Afrikaans;female;22;size;14;13;high;big;k;0.6066818535327911
ARF6;Afrikaans;female;22;size;14;14;low;big;s;0.6621929137036204
ARF6;Afrikaans;female;22;size;14;15;low;big;s;0.6952950786799192
ARF6;Afrikaans;female;22;size;14;16;high;big;k;0.6962901968508959
ARF6;Afrikaans;female;22;size;15;1;high;small;k;0.7632133336737752
ARF6;Afrikaans;female;22;size;15;2;low;big;s;0.6874758480116725
ARF6;Afrikaans;female;22;size;15;3;high;big;k;0.9446077533066273
ARF6;Afrikaans;female;22;size;15;4;high;big;k;0.5828744247555733
ARF6;Afrikaans;female;22;size;15;5;low;small;s;0.8493922520428896
ARF6;Afrikaans;female;22;size;15;6;low;small;s;0.8959062024950981
ARF6;Afrikaans;female;22;size;15;7;low;big;s;0.9958351897075772
ARF6;Afrikaans;female;22;size;15;8;low;small;s;0.8091786075383425
ARF6;Afrikaans;female;22;size;15;9;high;big;k;0.5671147787943482
ARF6;Afrikaans;female;22;size;15;10;high;big;k;0.5812556324526668
ARF6;Afrikaans;female;22;size;15;11;low;small;s;0.6507145222276449
ARF6;Afrikaans;female;22;size;15;12;high;big;k;0.5728916712105274
ARF6;Afrikaans;female;22;size;15;13;high;small;k;0.6828642012551427
ARF6;Afrikaans;female;22;size;15;14;high;small;k;0.5169768007472157
ARF6;Afrikaans;female;22;size;15;15;low;big;s;0.6625185674056411
ARF6;Afrikaans;female;22;size;15;16;low;small;s;1.3276210455223918
ARF6;Afrikaans;female;22;height;16;1;high;high;k;0.7421788927167654
ARF6;Afrikaans;female;22;height;16;2;high;low;k;0.7168391179293394
ARF6;Afrikaans;female;22;height;16;3;high;low;k;0.4819483458995819
ARF6;Afrikaans;female;22;height;16;4;high;high;k;1.0813833279535174
ARF6;Afrikaans;female;22;height;16;5;high;low;k;0.7222686465829611
ARF6;Afrikaans;female;22;height;16;6;high;high;k;2.1201609391719103
ARF6;Afrikaans;female;22;height;16;7;low;high;s;0.7104022344574332
ARF6;Afrikaans;female;22;height;16;8;low;low;s;0.6414316268637776
ARF6;Afrikaans;female;22;height;16;9;low;high;k;0.8611512975767255
ARF6;Afrikaans;female;22;height;16;10;low;high;k;0.715388085693121
ARF6;Afrikaans;female;22;height;16;11;high;low;k;1.8667213497683406
ARF6;Afrikaans;female;22;height;16;12;low;low;s;0.48746432084590197
ARF6;Afrikaans;female;22;height;16;13;low;low;s;0.7324081100523472
ARF6;Afrikaans;female;22;height;16;14;low;high;s;0.9272964177653193
ARF6;Afrikaans;female;22;height;16;15;high;high;k;0.6271001184359193
ARF6;Afrikaans;female;22;height;16;16;low;low;s;1.8520523458719254
ARF6;Afrikaans;female;22;size;17;1;high;big;k;1.0061826761811972
ARF6;Afrikaans;female;22;size;17;2;high;small;k;0.5582404294982553
ARF6;Afrikaans;female;22;size;17;3;low;big;s;0.667173633351922
ARF6;Afrikaans;female;22;size;17;4;low;small;s;0.6679998049512506
ARF6;Afrikaans;female;22;size;17;5;high;small;k;0.9253772348165512
ARF6;Afrikaans;female;22;size;17;6;high;big;k;0.636865770444274
ARF6;Afrikaans;female;22;size;17;7;low;small;s;0.8281750502064824
ARF6;Afrikaans;female;22;size;17;8;high;small;k;0.6860082363709807
ARF6;Afrikaans;female;22;size;17;9;low;big;s;1.45077049639076
ARF6;Afrikaans;female;22;size;17;10;high;small;s;0.8153119422495365
ARF6;Afrikaans;female;22;size;17;11;low;small;s;1.2399022812023759
ARF6;Afrikaans;female;22;size;17;12;low;big;s;1.2000316577032208
ARF6;Afrikaans;female;22;size;17;13;low;small;s;2.7615266470238566
ARF6;Afrikaans;female;22;size;17;14;low;big;s;0.8224767101928592
ARF6;Afrikaans;female;22;size;17;15;high;big;k;0.7148496732115746
ARF6;Afrikaans;female;22;size;17;16;high;big;k;0.7557939635589719
ARF6;Afrikaans;female;22;height;18;1;low;high;s;0.6917460495606065
ARF6;Afrikaans;female;22;height;18;2;low;high;s;0.6898304186761379
ARF6;Afrikaans;female;22;height;18;3;low;low;s;0.7821406982839108
ARF6;Afrikaans;female;22;height;18;4;low;low;s;0.5576605703681707
ARF6;Afrikaans;female;22;height;18;5;high;low;k;0.8532014088705182
ARF6;Afrikaans;female;22;height;18;6;low;high;s;1.0974074443802238
ARF6;Afrikaans;female;22;height;18;7;high;high;k;0.863322714343667
ARF6;Afrikaans;female;22;height;18;8;high;high;k;0.6895458186045289
ARF6;Afrikaans;female;22;height;18;9;high;high;k;0.782334117218852
ARF6;Afrikaans;female;22;height;18;10;high;low;k;0.8355012629181147
ARF6;Afrikaans;female;22;height;18;11;low;low;s;0.9115553237497807
ARF6;Afrikaans;female;22;height;18;12;high;low;k;0.9903610562905669
ARF6;Afrikaans;female;22;height;18;13;high;high;k;0.6482024537399411
ARF6;Afrikaans;female;22;height;18;14;low;high;s;0.9795489721000195
ARF6;Afrikaans;female;22;height;18;15;high;low;k;0.6120999343693256
ARF6;Afrikaans;female;22;height;18;16;low;low;s;0.9294319143518806
ARF6;Afrikaans;female;22;size;19;1;low;big;s;0.784617243334651
ARF6;Afrikaans;female;22;size;19;2;high;big;k;1.4087339816614985
ARF6;Afrikaans;female;22;size;19;3;high;small;k;0.6878279475495219
ARF6;Afrikaans;female;22;size;19;4;high;big;k;1.0322992820292711
ARF6;Afrikaans;female;22;size;19;5;high;big;k;0.7743629133328795
ARF6;Afrikaans;female;22;size;19;6;high;small;k;0.8394698910415173
ARF6;Afrikaans;female;22;size;19;7;high;small;k;0.5657880865037441
ARF6;Afrikaans;female;22;size;19;8;high;big;k;0.7099325051531196
ARF6;Afrikaans;female;22;size;19;9;low;small;s;0.6529613332822919
ARF6;Afrikaans;female;22;size;19;10;low;small;s;0.6271534077823162
ARF6;Afrikaans;female;22;size;19;11;low;small;s;0.5502538317814469
ARF6;Afrikaans;female;22;size;19;12;low;big;s;0.6365014333277941
ARF6;Afrikaans;female;22;size;19;13;low;big;s;0.6126336110755801
ARF6;Afrikaans;female;22;size;19;14;low;big;s;0.6254371153190732
ARF6;Afrikaans;female;22;size;19;15;low;small;s;0.6611614804714918
ARF6;Afrikaans;female;22;size;19;16;high;small;k;0.7445129388943315
ARF6;Afrikaans;female;22;height;20;1;low;low;s;0.8084945390000939
ARF6;Afrikaans;female;22;height;20;2;high;low;k;0.8487452873960137
ARF6;Afrikaans;female;22;height;20;3;high;low;k;0.6152313379570842
ARF6;Afrikaans;female;22;height;20;4;high;low;k;0.6069360598921776
ARF6;Afrikaans;female;22;height;20;5;high;high;k;0.8902114136144519
ARF6;Afrikaans;female;22;height;20;6;low;low;s;0.6319766286760569
ARF6;Afrikaans;female;22;height;20;7;low;high;s;0.7583119552582502
ARF6;Afrikaans;female;22;height;20;8;high;high;k;0.9223713558167219
ARF6;Afrikaans;female;22;height;20;9;low;high;s;0.6392744211480021
ARF6;Afrikaans;female;22;height;20;10;low;low;s;0.9532030280679464
ARF6;Afrikaans;female;22;height;20;11;low;low;s;1.064469882287085
ARF6;Afrikaans;female;22;height;20;12;low;high;s;0.8693076288327575
ARF6;Afrikaans;female;22;height;20;13;high;low;k;0.5380759770050645
ARF6;Afrikaans;female;22;height;20;14;low;high;s;0.7313664136454463
ARF6;Afrikaans;female;22;height;20;15;high;high;k;1.4230635175481439
ARF6;Afrikaans;female;22;height;20;16;high;high;k;0.6811100151389837
