participant;language;gender;age;condition;block;trial;sound;visual;key;RT
F34;Xh;female;24;height;1;1;high;low;s;0.9454804687411524
F34;Xh;female;24;height;1;2;low;low;k;0.6278420383459888
F34;Xh;female;24;height;1;3;low;high;k;0.6479348088032566
F34;Xh;female;24;height;1;4;high;high;s;0.6620560372830369
F34;Xh;female;24;height;1;5;high;low;s;0.7231652646441944
F34;Xh;female;24;height;1;6;low;high;k;0.5940180370234884
F34;Xh;female;24;height;1;7;high;low;s;0.6621886680368334
F34;Xh;female;24;height;1;8;low;high;k;0.6316322780330665
F34;Xh;female;24;height;1;9;low;high;s;0.5586364137125202
F34;Xh;female;24;height;1;10;high;low;s;0.9305326664471067
F34;Xh;female;24;height;1;11;high;low;s;0.6943263640278019
F34;Xh;female;24;height;1;12;high;low;s;0.6510611052508466
F34;Xh;female;24;height;1;13;low;high;k;0.6666507457266562
F34;Xh;female;24;height;1;14;low;high;k;0.6819210459943861
F34;Xh;female;24;height;1;15;high;low;s;0.6252202124451287
F34;Xh;female;24;height;1;16;low;high;k;0.5974522262695245
F34;Xh;female;24;size;2;1;high;small;s;0.7483726087375544
F34;Xh;female;24;size;2;2;high;big;s;0.6123783181537874
F34;Xh;female;24;size;2;3;low;big;k;0.5715801494661719
F34;Xh;female;24;size;2;4;low;small;k;0.6012369397212751
F34;Xh;female;24;size;2;5;low;big;k;0.6501808475586586
F34;Xh;female;24;size;2;6;high;big;s;0.6496803243644536
F34;Xh;female;24;size;2;7;low;big;k;0.71734609012492
F34;Xh;female;24;size;2;8;low;small;k;0.6562254154123366
F34;Xh;female;24;size;2;9;low;big;k;0.6180873618577607
F34;Xh;female;24;size;2;10;low;small;k;0.623087462503463
F34;Xh;female;24;size;2;11;high;big;s;0.5579215496545658
F34;Xh;female;24;size;2;12;high;small;s;0.6024393006809987
F34;Xh;female;24;size;2;13;high;small;s;0.6087964982143603
F34;Xh;female;24;size;2;14;high;small;s;0.5747518403804861
F34;Xh;female;24;size;2;15;low;big;k;0.6500778219196945
F34;Xh;female;24;size;2;16;high;small;s;0.6401956461486407
F34;Xh;female;24;size;3;1;high;big;s;0.7702503681648523
F34;Xh;female;24;size;3;2;low;big;k;0.6364855375140905
F34;Xh;female;24;size;3;3;high;small;s;0.5856725623016246
F34;Xh;female;24;size;3;4;high;big;s;0.601506938051898
F34;Xh;female;24;size;3;5;low;small;k;0.6610123595455661
F34;Xh;female;24;size;3;6;high;small;s;0.6230116734514013
F34;Xh;female;24;size;3;7;high;big;s;0.6238587734987959
F34;Xh;female;24;size;3;8;low;small;k;0.624989292875398
F34;Xh;female;24;size;3;9;low;small;k;0.6103687253780663
F34;Xh;female;24;size;3;10;low;big;k;0.6177285482408479
F34;Xh;female;24;size;3;11;high;big;s;0.6141439651837572
F34;Xh;female;24;size;3;12;low;small;k;0.6431162860244513
F34;Xh;female;24;size;3;13;low;big;k;0.6775426520034671
F34;Xh;female;24;size;3;14;low;small;k;0.6890420545823872
F34;Xh;female;24;size;3;15;high;big;s;0.5949038209510036
F34;Xh;female;24;size;3;16;high;small;s;0.5531527634011582
F34;Xh;female;24;size;4;1;low;big;k;0.6933418964617886
F34;Xh;female;24;size;4;2;high;big;s;0.6336312131024897
F34;Xh;female;24;size;4;3;high;small;s;0.5164168063784018
F34;Xh;female;24;size;4;4;low;small;k;0.6021933811716735
F34;Xh;female;24;size;4;5;high;small;s;0.7708728643483482
F34;Xh;female;24;size;4;6;high;small;s;0.6081195287406445
F34;Xh;female;24;size;4;7;low;big;k;0.6097063610795885
F34;Xh;female;24;size;4;8;high;small;s;0.6515734705026262
F34;Xh;female;24;size;4;9;high;small;s;0.5960398665629327
F34;Xh;female;24;size;4;10;low;small;k;0.5648108492023312
F34;Xh;female;24;size;4;11;high;big;s;0.7910524763865396
F34;Xh;female;24;size;4;12;low;small;k;0.9020170533331111
F34;Xh;female;24;size;4;13;high;big;s;1.0465486595057882
F34;Xh;female;24;size;4;14;low;big;k;0.8171842884621583
F34;Xh;female;24;size;4;15;low;big;s;0.5976890668971464
F34;Xh;female;24;size;4;16;low;big;k;0.7514456160715781
F34;Xh;female;24;size;5;1;high;small;s;0.7222834280109964
F34;Xh;female;24;size;5;2;low;big;k;0.5637821713462472
F34;Xh;female;24;size;5;3;low;big;k;0.5527240818482824
F34;Xh;female;24;size;5;4;low;small;k;0.5336580155417323
F34;Xh;female;24;size;5;5;low;small;k;0.5151540510123596
F34;Xh;female;24;size;5;6;high;small;s;0.550988039933145
F34;Xh;female;24;size;5;7;high;big;s;0.5433771659736522
F34;Xh;female;24;size;5;8;high;big;s;0.6070253249490634
F34;Xh;female;24;size;5;9;low;small;k;0.6241615348262712
F34;Xh;female;24;size;5;10;high;small;s;0.6164271089364775
F34;Xh;female;24;size;5;11;high;big;s;0.5728843518882059
F34;Xh;female;24;size;5;12;low;big;k;0.5656836069538258
F34;Xh;female;24;size;5;13;low;small;k;0.9609876096365042
F34;Xh;female;24;size;5;14;low;small;k;0.7766880915150978
F34;Xh;female;24;size;5;15;high;big;s;0.9136009290232323
F34;Xh;female;24;size;5;16;high;big;s;0.6830393286072649
F34;Xh;female;24;size;6;1;high;big;s;0.6841039272258058
F34;Xh;female;24;size;6;2;low;small;k;0.6036823193426244
F34;Xh;female;24;size;6;3;low;small;k;0.6958535914309323
F34;Xh;female;24;size;6;4;low;small;k;0.5932644890272059
F34;Xh;female;24;size;6;5;high;big;s;0.6711649283533916
F34;Xh;female;24;size;6;6;low;big;k;0.7694498468190432
F34;Xh;female;24;size;6;7;high;big;s;0.6758725307881832
F34;Xh;female;24;size;6;8;high;small;s;0.7281357602332719
F34;Xh;female;24;size;6;9;high;big;s;0.5762084102607332
F34;Xh;female;24;size;6;10;high;small;s;0.5504133066860959
F34;Xh;female;24;size;6;11;low;big;k;0.6450998263899237
F34;Xh;female;24;size;6;12;low;big;k;0.6685056026326492
F34;Xh;female;24;size;6;13;high;small;s;0.7320534991449676
F34;Xh;female;24;size;6;14;low;small;k;0.6472775760339573
F34;Xh;female;24;size;6;15;high;big;s;0.677837123919744
F34;Xh;female;24;size;6;16;low;small;k;0.6200922178686596
F34;Xh;female;24;size;7;1;high;small;s;0.6688671793672256
F34;Xh;female;24;size;7;2;low;small;k;0.49227485043229535
F34;Xh;female;24;size;7;3;low;big;k;0.6288529531448148
F34;Xh;female;24;size;7;4;high;big;s;0.6032295589684509
F34;Xh;female;24;size;7;5;high;small;s;0.6384789462317713
F34;Xh;female;24;size;7;6;low;small;k;0.6103568833204918
F34;Xh;female;24;size;7;7;low;big;k;0.5936454077018425
F34;Xh;female;24;size;7;8;high;small;s;0.5852573017473333
F34;Xh;female;24;size;7;9;high;big;s;0.5578339186613448
F34;Xh;female;24;size;7;10;low;big;k;0.5564551113639027
F34;Xh;female;24;size;7;11;low;big;k;0.5471453005447984
F34;Xh;female;24;size;7;12;high;big;s;0.5630152023513801
F34;Xh;female;24;size;7;13;high;small;s;0.6160698742605746
F34;Xh;female;24;size;7;14;low;small;k;0.5413130997330882
F34;Xh;female;24;size;7;15;high;small;s;0.6606507828109898
F34;Xh;female;24;size;7;16;low;big;k;0.5743432902381755
F34;Xh;female;24;height;8;1;low;low;k;0.694721493171528
F34;Xh;female;24;height;8;2;high;low;s;0.6852948408923112
F34;Xh;female;24;height;8;3;low;high;k;0.5955618431908078
F34;Xh;female;24;height;8;4;high;high;s;0.6715754520846531
F34;Xh;female;24;height;8;5;low;low;k;0.5163650961476378
F34;Xh;female;24;height;8;6;low;low;k;0.6165932920994237
F34;Xh;female;24;height;8;7;high;high;s;0.5271314769634046
F34;Xh;female;24;height;8;8;low;high;k;0.5976697248988785
F34;Xh;female;24;height;8;9;high;high;s;0.6360390929621644
F34;Xh;female;24;height;8;10;low;low;k;0.6034794258303009
F34;Xh;female;24;height;8;11;high;low;s;0.8259339712094516
F34;Xh;female;24;height;8;12;high;low;s;0.60087812616257
F34;Xh;female;24;height;8;13;low;low;k;0.6342217357596382
F34;Xh;female;24;height;8;14;high;high;s;0.7091474565677345
F34;Xh;female;24;height;8;15;high;high;s;0.6526005694177002
F34;Xh;female;24;height;8;16;low;high;k;0.6341617360594682
F34;Xh;female;24;size;9;1;low;big;k;0.6967022704193369
F34;Xh;female;24;size;9;2;high;big;s;0.6540958233526908
F34;Xh;female;24;size;9;3;high;big;s;0.7573962371097878
F34;Xh;female;24;size;9;4;low;big;k;0.6010087832692079
F34;Xh;female;24;size;9;5;low;small;k;0.6839223494171165
F34;Xh;female;24;size;9;6;high;big;s;0.6738309644861147
F34;Xh;female;24;size;9;7;high;big;s;0.5350265597226098
F34;Xh;female;24;size;9;8;low;small;k;0.6373227691510692
F34;Xh;female;24;size;9;9;high;small;s;0.6257546828128397
F34;Xh;female;24;size;9;10;low;big;k;0.5605658754357137
F34;Xh;female;24;size;9;11;high;small;s;0.6757671366794966
F34;Xh;female;24;size;9;12;high;small;s;0.685947731602937
F34;Xh;female;24;size;9;13;high;small;s;0.5000866441987455
F34;Xh;female;24;size;9;14;low;big;k;0.6165960552752949
F34;Xh;female;24;size;9;15;low;small;k;0.5719784364919178
F34;Xh;female;24;size;9;16;low;small;k;0.5724319862783886
F34;Xh;female;24;size;10;1;low;big;k;0.5969828870729543
F34;Xh;female;24;size;10;2;low;small;k;0.5141391888610087
F34;Xh;female;24;size;10;3;high;small;s;0.6195928788511083
F34;Xh;female;24;size;10;4;high;big;s;0.5445254483493045
F34;Xh;female;24;size;10;5;low;big;k;0.5762214364949614
F34;Xh;female;24;size;10;6;low;small;k;0.5710267318063416
F34;Xh;female;24;size;10;7;high;small;s;0.557095765369013
F34;Xh;female;24;size;10;8;high;big;s;0.4976629749289714
F34;Xh;female;24;size;10;9;low;small;k;0.5717076486325823
F34;Xh;female;24;size;10;10;high;big;s;0.6841789268073626
F34;Xh;female;24;size;10;11;low;big;k;0.6206120830611326
F34;Xh;female;24;size;10;12;high;big;s;0.6622573518543504
F34;Xh;female;24;size;10;13;high;big;s;0.7131346687674522
F34;Xh;female;24;size;10;14;low;small;k;0.6309596506762318
F34;Xh;female;24;size;10;15;high;small;s;0.6282324306666851
F34;Xh;female;24;size;10;16;low;small;k;0.6276284870691597
F34;Xh;female;24;height;11;1;low;low;k;0.7225380316958763
F34;Xh;female;24;height;11;2;high;high;s;0.5444125542999245
F34;Xh;female;24;height;11;3;high;low;s;0.9288882029359229
F34;Xh;female;24;height;11;4;high;high;s;0.7520329808467068
F34;Xh;female;24;height;11;5;high;high;s;0.5593599618878216
F34;Xh;female;24;height;11;6;low;high;k;0.6304157066624612
F34;Xh;female;24;height;11;7;high;high;s;0.6629635316785425
F34;Xh;female;24;height;11;8;low;low;k;0.6134231801843271
F34;Xh;female;24;height;11;9;high;high;s;0.6902609944227152
F34;Xh;female;24;height;11;10;low;low;k;0.6804084237664938
F34;Xh;female;24;height;11;11;low;low;k;0.7338609879370779
F34;Xh;female;24;height;11;12;low;low;k;0.6679786322638392
F34;Xh;female;24;height;11;13;low;low;k;0.5808935129316524
F34;Xh;female;24;height;11;14;low;high;k;0.643382731708698
F34;Xh;female;24;height;11;15;high;high;s;0.8131915499689057
F34;Xh;female;24;height;11;16;high;low;s;0.7647604021476582
F34;Xh;female;24;height;12;1;low;low;k;0.6026437731343322
F34;Xh;female;24;height;12;2;low;high;k;0.546696092817001
F34;Xh;female;24;height;12;3;high;high;s;0.644546803436242
F34;Xh;female;24;height;12;4;high;high;s;0.6512991301715374
F34;Xh;female;24;height;12;5;low;high;k;0.7905949791893363
F34;Xh;female;24;height;12;6;low;low;k;0.7400563443661667
F34;Xh;female;24;height;12;7;high;low;s;0.8554079994792119
F34;Xh;female;24;height;12;8;low;high;k;1.1283313116291538
F34;Xh;female;24;height;12;9;low;high;k;0.656741728016641
F34;Xh;female;24;height;12;10;high;low;s;0.6362731704139151
F34;Xh;female;24;height;12;11;high;low;s;0.7184170045075007
F34;Xh;female;24;height;12;12;high;high;s;0.628340193128679
F34;Xh;female;24;height;12;13;high;high;s;0.6344901551492512
F34;Xh;female;24;height;12;14;high;low;s;0.5417252024635673
F34;Xh;female;24;height;12;15;low;low;k;0.6632390563027002
F34;Xh;female;24;height;12;16;low;low;k;0.6260744177270681
F34;Xh;female;24;height;13;1;high;low;s;0.7971384914126247
F34;Xh;female;24;height;13;2;low;high;k;0.579209181247279
F34;Xh;female;24;height;13;3;low;high;k;0.6126581848948263
F34;Xh;female;24;height;13;4;high;low;s;0.6369079033611342
F34;Xh;female;24;height;13;5;low;high;k;0.6083236064296216
F34;Xh;female;24;height;13;6;high;high;s;0.6269321755389683
F34;Xh;female;24;height;13;7;low;low;k;0.5002074329531752
F34;Xh;female;24;height;13;8;high;low;s;0.694807150575798
F34;Xh;female;24;height;13;9;high;low;s;0.5413833624916151
F34;Xh;female;24;height;13;10;low;low;k;0.6261778381303884
F34;Xh;female;24;height;13;11;high;high;s;0.64777652034536
F34;Xh;female;24;height;13;12;low;low;k;0.5944305344019085
F34;Xh;female;24;height;13;13;low;low;s;0.6630085313809104
F34;Xh;female;24;height;13;14;high;high;s;0.809202758828178
F34;Xh;female;24;height;13;15;high;high;s;0.6707875622087158
F34;Xh;female;24;height;13;16;low;high;k;0.6330292430939153
F34;Xh;female;24;height;14;1;high;high;s;0.7790786030818708
F34;Xh;female;24;height;14;2;low;high;k;0.7540109949186444
F34;Xh;female;24;height;14;3;high;high;s;0.7071465479093604
F34;Xh;female;24;height;14;4;low;low;k;0.558804570522625
F34;Xh;female;24;height;14;5;high;low;s;0.7037920949514955
F34;Xh;female;24;height;14;6;low;high;k;0.5277342363842763
F34;Xh;female;24;height;14;7;high;high;s;0.5876020240248181
F34;Xh;female;24;height;14;8;high;low;s;0.6494253259152174
F34;Xh;female;24;height;14;9;low;high;k;0.638486840936821
F34;Xh;female;24;height;14;10;high;low;s;0.7224326375871897
F34;Xh;female;24;height;14;11;low;low;k;0.7231384226470254
F34;Xh;female;24;height;14;12;low;low;k;0.7006606669747271
F34;Xh;female;24;height;14;13;high;high;s;0.6528168839286081
F34;Xh;female;24;height;14;14;high;low;s;0.6308680722722784
F34;Xh;female;24;height;14;15;low;high;k;0.6574163291370496
F34;Xh;female;24;height;14;16;low;low;k;0.6255466577713378
F34;Xh;female;24;height;15;1;low;low;k;0.6927884788019583
F34;Xh;female;24;height;15;2;low;high;k;0.5656390019576065
F34;Xh;female;24;height;15;3;low;high;k;0.5496396272210404
F34;Xh;female;24;height;15;4;low;low;k;0.5228841347852722
F34;Xh;female;24;height;15;5;high;low;s;0.6688817845424637
F34;Xh;female;24;height;15;6;high;high;s;0.5517889560433105
F34;Xh;female;24;height;15;7;high;low;s;0.5858959819888696
F34;Xh;female;24;height;15;8;high;high;s;0.6027408777736127
F34;Xh;female;24;height;15;9;low;high;k;0.6426461573573761
F34;Xh;female;24;height;15;10;high;high;s;0.6296372904325835
F34;Xh;female;24;height;15;11;high;low;s;0.7302061421214603
F34;Xh;female;24;height;15;12;low;high;k;0.8708614565548487
F34;Xh;female;24;height;15;13;high;low;s;0.767121703363955
F34;Xh;female;24;height;15;14;low;low;k;0.6163410568260588
F34;Xh;female;24;height;15;15;low;low;k;0.7087511432473548
F34;Xh;female;24;height;15;16;high;high;s;0.6645697059575468
F34;Xh;female;24;height;16;1;low;high;k;0.6467206057859585
F34;Xh;female;24;height;16;2;low;high;k;0.5599414056050591
F34;Xh;female;24;height;16;3;high;high;s;0.6533217491814867
F34;Xh;female;24;height;16;4;low;low;k;0.6830227497266605
F34;Xh;female;24;height;16;5;high;low;s;0.6044998142751865
F34;Xh;female;24;height;16;6;low;high;k;0.6866124643711373
F34;Xh;female;24;height;16;7;high;low;s;0.5700335800647736
F34;Xh;female;24;height;16;8;high;low;s;0.7212014609831385
F34;Xh;female;24;height;16;9;low;high;k;0.6499917697510682
F34;Xh;female;24;height;16;10;high;high;s;0.5948548738961108
F34;Xh;female;24;height;16;11;low;low;k;0.7095990327652544
F34;Xh;female;24;height;16;12;high;low;s;0.7789333407999948
F34;Xh;female;24;height;16;13;high;high;s;0.88760806346545
F34;Xh;female;24;height;16;14;low;low;k;0.6311368864262477
F34;Xh;female;24;height;16;15;low;low;k;0.6274709880235605
F34;Xh;female;24;height;16;16;high;high;s;0.7270044514443725
F34;Xh;female;24;size;17;1;high;small;s;0.7820347690139897
F34;Xh;female;24;size;17;2;high;small;s;0.5968214406748302
F34;Xh;female;24;size;17;3;high;small;s;0.5441417664987966
F34;Xh;female;24;size;17;4;high;small;s;0.5528582915430889
F34;Xh;female;24;size;17;5;low;small;k;0.6557612078031525
F34;Xh;female;24;size;17;6;high;small;s;0.6610861748922616
F34;Xh;female;24;size;17;7;low;big;k;0.6096842559054494
F34;Xh;female;24;size;17;8;high;big;s;0.5916050255764276
F34;Xh;female;24;size;17;9;low;small;k;0.5645096668740734
F34;Xh;female;24;size;17;10;low;big;k;0.6507437388063408
F34;Xh;female;24;size;17;11;low;big;k;0.6252817909698933
F34;Xh;female;24;size;17;12;high;big;s;0.6637861581402831
F34;Xh;female;24;size;17;13;low;small;k;0.6759834511904046
F34;Xh;female;24;size;17;14;low;big;k;0.6008137844619341
F34;Xh;female;24;size;17;15;low;big;k;0.6472925759735517
F34;Xh;female;24;size;17;16;high;big;s;0.5963209174806252
F34;Xh;female;24;size;18;1;high;small;s;1.0350535989855416
F34;Xh;female;24;size;18;2;low;small;k;0.6452648253180087
F34;Xh;female;24;size;18;3;low;small;k;0.636741325375624
F34;Xh;female;24;size;18;4;low;small;k;0.5841808609548025
F34;Xh;female;24;size;18;5;high;big;s;0.6262986268266104
F34;Xh;female;24;size;18;6;low;small;k;0.8345976018463261
F34;Xh;female;24;size;18;7;high;big;s;0.6593809222686104
F34;Xh;female;24;size;18;8;high;big;s;0.6606764405150898
F34;Xh;female;24;size;18;9;low;big;k;0.6760908188880421
F34;Xh;female;24;size;18;10;high;small;s;0.7090910095721483
F34;Xh;female;24;size;18;11;high;small;s;0.6703308545402251
F34;Xh;female;24;size;18;12;low;big;k;0.6054755977238528
F34;Xh;female;24;size;18;13;low;small;k;0.6222379940445535
F34;Xh;female;24;size;18;14;high;big;s;0.6789573801215738
F34;Xh;female;24;size;18;15;high;big;s;0.5706205500755459
F34;Xh;female;24;size;18;16;low;big;k;0.7092090351507068
F34;Xh;female;24;height;19;1;high;high;s;0.6545525310793892
F34;Xh;female;24;height;19;2;high;low;s;0.6367902724887244
F34;Xh;female;24;height;19;3;high;high;s;0.5981438009766862
F34;Xh;female;24;height;19;4;high;low;s;0.5452146545867436
F34;Xh;female;24;height;19;5;high;high;s;0.5797665461432189
F34;Xh;female;24;height;19;6;low;low;k;0.6874994325335138
F34;Xh;female;24;height;19;7;low;low;k;0.5968064407934435
F34;Xh;female;24;height;19;8;high;high;s;0.6805548702250235
F34;Xh;female;24;height;19;9;low;low;k;0.6949559653876349
F34;Xh;female;24;height;19;10;low;low;k;0.6183814389514737
F34;Xh;female;24;height;19;11;low;high;k;0.6246221897890791
F34;Xh;female;24;height;19;12;low;high;k;0.6556258139316924
F34;Xh;female;24;height;19;13;low;low;k;0.6222312835743651
F34;Xh;female;24;height;19;14;high;low;s;0.6192577493493445
F34;Xh;female;24;height;19;15;high;high;s;0.6806760537438095
F34;Xh;female;24;height;19;16;low;high;k;0.7266732692951337
F34;Xh;female;24;height;20;1;high;low;s;0.5584133887314238
F34;Xh;female;24;height;20;2;low;high;k;0.6524462283123285
F34;Xh;female;24;height;20;3;low;low;k;0.7062303693383001
F34;Xh;female;24;height;20;4;high;high;s;0.6862090458162129
F34;Xh;female;24;height;20;5;high;low;s;0.6597871039411984
F34;Xh;female;24;height;20;6;low;low;k;0.6234229867113754
F34;Xh;female;24;height;20;7;high;high;s;0.6734046513447538
F34;Xh;female;24;height;20;8;high;low;s;0.7091727195656858
F34;Xh;female;24;height;20;9;low;high;k;0.6863148346310481
F34;Xh;female;24;height;20;10;low;high;k;0.6555085777654313
F34;Xh;female;24;height;20;11;high;low;s;0.6888269243645482
F34;Xh;female;24;height;20;12;low;high;k;0.7291537802084349
F34;Xh;female;24;height;20;13;high;high;s;0.7238982864073478
F34;Xh;female;24;height;20;14;high;high;s;0.8232430667849258
F34;Xh;female;24;height;20;15;low;low;k;0.6261423120158724
F34;Xh;female;24;height;20;16;low;low;k;0.6218543122522533
