participant;language;gender;age;condition;block;trial;sound;visual;key;RT
F35;Xh;female;23;size;1;1;high;big;s;3.850153295090422
F35;Xh;female;23;size;1;2;high;big;s;1.6435516780475155
F35;Xh;female;23;size;1;3;high;big;s;1.6296913690166548
F35;Xh;female;23;size;1;4;high;big;s;1.0307588886935264
F35;Xh;female;23;size;1;5;high;small;s;0.9364315773709677
F35;Xh;female;23;size;1;6;low;small;k;1.1842557026538998
F35;Xh;female;23;size;1;7;low;small;k;0.9307695070747286
F35;Xh;female;23;size;1;8;low;big;k;1.0108607222791761
F35;Xh;female;23;size;1;9;high;small;s;0.9918096559122205
F35;Xh;female;23;size;1;10;low;small;k;0.773081403283868
F35;Xh;female;23;size;1;11;low;small;k;0.9504770167986862
F35;Xh;female;23;size;1;12;high;small;s;1.2427695512888022
F35;Xh;female;23;size;1;13;low;small;k;1.0082696857280098
F35;Xh;female;23;size;1;14;low;big;k;1.1373723083524965
F35;Xh;female;23;size;1;15;low;big;k;0.8829675658489577
F35;Xh;female;23;size;1;16;high;big;s;0.9479080853052437
F35;Xh;female;23;size;2;1;low;small;k;1.935458557039965
F35;Xh;female;23;size;2;2;low;big;k;0.7222380335442722
F35;Xh;female;23;size;2;3;high;small;s;1.138135329936631
F35;Xh;female;23;size;2;4;low;small;k;0.7227097411523573
F35;Xh;female;23;size;2;5;high;big;s;1.182499924034346
F35;Xh;female;23;size;2;6;low;small;k;1.7843100180616602
F35;Xh;female;23;size;2;7;high;small;s;1.6130406825104728
F35;Xh;female;23;size;2;8;low;big;k;1.167212650179863
F35;Xh;female;23;size;2;9;low;big;k;1.0053427300881594
F35;Xh;female;23;size;2;10;high;big;s;1.3507858570083044
F35;Xh;female;23;size;2;11;high;big;s;1.3488244217005558
F35;Xh;female;23;size;2;12;high;small;s;1.0372885852120817
F35;Xh;female;23;size;2;13;high;small;s;0.9100566088454798
F35;Xh;female;23;size;2;14;low;small;k;1.1809671703376807
F35;Xh;female;23;size;2;15;high;big;s;2.6750183255644515
F35;Xh;female;23;size;2;16;low;big;k;0.9819641904905438
F35;Xh;female;23;height;3;1;high;high;s;1.9209540414740331
F35;Xh;female;23;height;3;2;low;high;k;1.7806247777189128
F35;Xh;female;23;height;3;3;high;low;s;0.7229311871342361
F35;Xh;female;23;height;3;4;high;low;s;0.7572750537074171
F35;Xh;female;23;height;3;5;low;high;k;0.8518624950665981
F35;Xh;female;23;height;3;6;high;high;s;1.0423392118536867
F35;Xh;female;23;height;3;7;high;low;s;1.008186791499611
F35;Xh;female;23;height;3;8;high;low;s;0.9690812438493595
F35;Xh;female;23;height;3;9;low;high;k;2.091379829624202
F35;Xh;female;23;height;3;10;high;high;s;0.9995728973299265
F35;Xh;female;23;height;3;11;low;low;k;0.7529677118873224
F35;Xh;female;23;height;3;12;low;low;k;0.8905930450418964
F35;Xh;female;23;height;3;13;low;high;k;0.7718072006828152
F35;Xh;female;23;height;3;14;low;high;k;2.584001651557628
F35;Xh;female;23;height;3;15;high;low;s;3.096121773996856
F35;Xh;female;23;height;3;16;low;low;k;1.1390258507453837
F35;Xh;female;23;height;4;1;high;high;s;3.2313123852945864
F35;Xh;female;23;height;4;2;high;high;s;1.0194596165092662
F35;Xh;female;23;height;4;3;high;low;s;0.9804073580307886
F35;Xh;female;23;height;4;4;high;high;s;1.3219406406860799
F35;Xh;female;23;height;4;5;low;high;k;0.8463792395195924
F35;Xh;female;23;height;4;6;low;low;k;0.8626959807006642
F35;Xh;female;23;height;4;7;high;low;s;1.1056928989710286
F35;Xh;female;23;height;4;8;low;low;k;0.7156250481493771
F35;Xh;female;23;height;4;9;low;low;k;0.8790237744688056
F35;Xh;female;23;height;4;10;high;low;s;0.7389281934592873
F35;Xh;female;23;height;4;11;high;high;s;0.663260371889919
F35;Xh;female;23;height;4;12;low;low;k;0.6755480591091327
F35;Xh;female;23;height;4;13;low;high;k;0.8891226593987085
F35;Xh;female;23;height;4;14;high;low;s;1.3956379480077885
F35;Xh;female;23;height;4;15;low;high;k;0.7865355306421407
F35;Xh;female;23;height;4;16;low;high;k;0.6873699596617371
F35;Xh;female;23;height;5;1;low;low;k;0.9977176456595771
F35;Xh;female;23;height;5;2;low;low;k;0.6613932782202028
F35;Xh;female;23;height;5;3;high;low;s;0.8810574460658245
F35;Xh;female;23;height;5;4;low;high;k;0.8231751724961214
F35;Xh;female;23;height;5;5;low;high;k;0.6135416004690342
F35;Xh;female;23;height;5;6;high;low;s;1.1096643218188547
F35;Xh;female;23;height;5;7;low;high;k;0.9079013590235263
F35;Xh;female;23;height;5;8;high;low;s;0.833737080800347
F35;Xh;female;23;height;5;9;low;high;k;0.9565804000594653
F35;Xh;female;23;height;5;10;low;high;k;0.8436172828660347
F35;Xh;female;23;height;5;11;high;high;s;2.998974480025936
F35;Xh;female;23;height;5;12;high;low;s;0.8222388625144958
F35;Xh;female;23;height;5;13;high;high;s;0.9202968087047338
F35;Xh;female;23;height;5;14;low;low;k;0.7048037992790341
F35;Xh;female;23;height;5;15;high;high;s;0.7019163171062246
F35;Xh;female;23;height;5;16;high;low;s;0.8356835161685012
F35;Xh;female;23;size;6;1;low;big;k;1.5552377505227923
F35;Xh;female;23;size;6;2;low;big;k;0.7264095866703428
F35;Xh;female;23;size;6;3;low;small;k;0.7055687945103273
F35;Xh;female;23;size;6;4;high;small;s;0.9589874905068427
F35;Xh;female;23;size;6;5;high;small;s;0.812632606131956
F35;Xh;female;23;size;6;6;high;big;s;0.5712154148495756
F35;Xh;female;23;size;6;7;high;big;s;0.7344657210633159
F35;Xh;female;23;size;6;8;low;small;k;0.8479763348586857
F35;Xh;female;23;size;6;9;low;small;k;0.9381814349326305
F35;Xh;female;23;size;6;10;high;small;s;2.2389208908425644
F35;Xh;female;23;size;6;11;high;small;s;0.8748455108143389
F35;Xh;female;23;size;6;12;low;big;k;1.094372311141342
F35;Xh;female;23;size;6;13;low;big;k;0.5260495099355467
F35;Xh;female;23;size;6;14;low;small;k;0.696285430865828
F35;Xh;female;23;size;6;15;high;big;s;1.4927248476305977
F35;Xh;female;23;size;6;16;high;big;s;0.7407147613703273
F35;Xh;female;23;size;7;1;high;small;s;1.228102799912449
F35;Xh;female;23;size;7;2;low;small;k;0.7751308642909862
F35;Xh;female;23;size;7;3;low;big;k;0.5456966253113933
F35;Xh;female;23;size;7;4;high;big;s;1.1462767269695178
F35;Xh;female;23;size;7;5;high;big;s;1.4616928027244285
F35;Xh;female;23;size;7;6;high;small;s;0.8246131899068132
F35;Xh;female;23;size;7;7;high;small;s;0.7419202802120708
F35;Xh;female;23;size;7;8;low;big;k;1.0379158181603998
F35;Xh;female;23;size;7;9;low;small;k;1.2358478835667484
F35;Xh;female;23;size;7;10;low;big;k;0.8710505343042314
F35;Xh;female;23;size;7;11;low;big;k;0.7956799477688037
F35;Xh;female;23;size;7;12;high;small;s;1.0534434852888808
F35;Xh;female;23;size;7;13;high;big;s;0.9631997012766078
F35;Xh;female;23;size;7;14;low;big;k;0.6665658777928911
F35;Xh;female;23;size;7;15;low;small;k;0.5408548131235875
F35;Xh;female;23;size;7;16;high;small;s;0.6295062386197969
F35;Xh;female;23;size;8;1;low;big;k;3.5298930387943983
F35;Xh;female;23;size;8;2;high;small;s;0.9432182459277101
F35;Xh;female;23;size;8;3;high;big;s;0.6627590592834167
F35;Xh;female;23;size;8;4;low;small;s;1.1306515604374
F35;Xh;female;23;size;8;5;low;small;k;1.1469473807374015
F35;Xh;female;23;size;8;6;high;small;s;0.8209267653292045
F35;Xh;female;23;size;8;7;low;big;k;0.9512653013807721
F35;Xh;female;23;size;8;8;low;big;k;0.9184778725611977
F35;Xh;female;23;size;8;9;high;big;s;0.7193359461962245
F35;Xh;female;23;size;8;10;high;small;s;0.8287701379158534
F35;Xh;female;23;size;8;11;low;big;k;0.7099179781507701
F35;Xh;female;23;size;8;12;low;small;k;0.677312127139885
F35;Xh;female;23;size;8;13;high;small;s;0.8289596103713848
F35;Xh;female;23;size;8;14;high;big;s;0.6944889946025796
F35;Xh;female;23;size;8;15;high;big;s;0.7743331060628407
F35;Xh;female;23;size;8;16;low;small;k;1.060046207625419
F35;Xh;female;23;height;9;1;low;high;k;0.7625700209173374
F35;Xh;female;23;height;9;2;high;high;s;0.6421345815178938
F35;Xh;female;23;height;9;3;low;low;k;0.5293636999558657
F35;Xh;female;23;height;9;4;high;low;s;0.4579976939712651
F35;Xh;female;23;height;9;5;high;high;s;0.6526278061210178
F35;Xh;female;23;height;9;6;high;low;s;0.536896021803841
F35;Xh;female;23;height;9;7;high;high;s;0.4690731517621316
F35;Xh;female;23;height;9;8;high;high;s;0.4725381303578615
F35;Xh;female;23;height;9;9;low;low;k;0.9735855581238866
F35;Xh;female;23;height;9;10;low;high;k;0.6178698631701991
F35;Xh;female;23;height;9;11;high;low;s;0.6950696489075199
F35;Xh;female;23;height;9;12;low;low;s;0.49927191238384694
F35;Xh;female;23;height;9;13;low;high;k;0.922590610338375
F35;Xh;female;23;height;9;14;high;low;s;0.9658827109378763
F35;Xh;female;23;height;9;15;low;low;k;1.0784506990457885
F35;Xh;female;23;height;9;16;low;high;k;0.9984325096593238
F35;Xh;female;23;height;10;1;high;high;s;2.752000217908062
F35;Xh;female;23;height;10;2;high;low;s;0.749815362971276
F35;Xh;female;23;height;10;3;low;low;k;0.7779480837052688
F35;Xh;female;23;height;10;4;low;high;k;1.0754313755896874
F35;Xh;female;23;height;10;5;high;low;s;1.320685385260731
F35;Xh;female;23;height;10;6;high;high;s;0.6598644718760625
F35;Xh;female;23;height;10;7;low;high;k;0.7299262754386291
F35;Xh;female;23;height;10;8;high;high;s;1.0181392299127765
F35;Xh;female;23;height;10;9;low;low;k;0.5161562816356309
F35;Xh;female;23;height;10;10;low;low;k;1.088142218068242
F35;Xh;female;23;height;10;11;low;high;k;0.5977999872993678
F35;Xh;female;23;height;10;12;low;low;k;0.7535258663701825
F35;Xh;female;23;height;10;13;high;high;s;1.216926684777718
F35;Xh;female;23;height;10;14;high;high;s;1.0041482638334855
F35;Xh;female;23;height;10;15;low;low;k;0.8206370302359574
F35;Xh;female;23;height;10;16;high;low;s;0.7738523196312599
F35;Xh;female;23;size;11;1;high;big;s;0.9923097844002768
F35;Xh;female;23;size;11;2;low;big;k;0.9203149664681405
F35;Xh;female;23;size;11;3;low;small;k;0.7959621828631498
F35;Xh;female;23;size;11;4;high;big;s;1.0752276926650666
F35;Xh;female;23;size;11;5;high;small;s;1.1882405464421026
F35;Xh;female;23;size;11;6;high;big;s;2.4780257279635407
F35;Xh;female;23;size;11;7;low;big;k;0.6501097953878343
F35;Xh;female;23;size;11;8;low;big;k;0.5238125501200557
F35;Xh;female;23;size;11;9;low;small;k;0.5825229765032418
F35;Xh;female;23;size;11;10;low;small;k;0.510219871008303
F35;Xh;female;23;size;11;11;high;small;s;0.8147314089001156
F35;Xh;female;23;size;11;12;high;big;s;1.0277758808806539
F35;Xh;female;23;size;11;13;low;big;k;0.6147443561931141
F35;Xh;female;23;size;11;14;high;small;s;1.3476433763862588
F35;Xh;female;23;size;11;15;low;small;k;1.976062911155168
F35;Xh;female;23;size;11;16;high;small;s;0.7764678297680803
F35;Xh;female;23;height;12;1;low;low;k;0.8584592964034528
F35;Xh;female;23;height;12;2;low;high;k;0.5430665099993348
F35;Xh;female;23;height;12;3;high;high;s;0.7095264015952125
F35;Xh;female;23;height;12;4;high;high;s;0.8473964700242504
F35;Xh;female;23;height;12;5;high;high;s;0.7446273687528446
F35;Xh;female;23;height;12;6;high;low;s;1.083697508671321
F35;Xh;female;23;height;12;7;low;high;k;0.8039129231474362
F35;Xh;female;23;height;12;8;low;low;k;0.756586636940483
F35;Xh;female;23;height;12;9;low;low;k;0.6865931223728694
F35;Xh;female;23;height;12;10;high;low;s;0.8057093594688922
F35;Xh;female;23;height;12;11;high;high;s;0.6591653972282074
F35;Xh;female;23;height;12;12;low;high;k;0.5663313660770655
F35;Xh;female;23;height;12;13;low;high;k;0.6596631573047489
F35;Xh;female;23;height;12;14;high;low;s;0.7952429768047296
F35;Xh;female;23;height;12;15;high;low;s;0.6293092661071569
F35;Xh;female;23;height;12;16;low;low;k;0.6900798113201745
F35;Xh;female;23;size;13;1;low;big;k;1.048806540260557
F35;Xh;female;23;size;13;2;low;big;k;0.5553897232748568
F35;Xh;female;23;size;13;3;low;small;k;0.6591752655804157
F35;Xh;female;23;size;13;4;high;big;s;0.5784224755479954
F35;Xh;female;23;size;13;5;high;big;k;0.4857479170896113
F35;Xh;female;23;size;13;6;low;small;k;0.8546319516026415
F35;Xh;female;23;size;13;7;high;small;s;0.4959561434225179
F35;Xh;female;23;size;13;8;high;big;s;1.2448288806481287
F35;Xh;female;23;size;13;9;low;big;k;0.7842839656514116
F35;Xh;female;23;size;13;10;high;small;s;1.781740691862069
F35;Xh;female;23;size;13;11;high;big;s;0.7076285185758024
F35;Xh;female;23;size;13;12;high;small;s;0.5722472505876794
F35;Xh;female;23;size;13;13;high;small;s;0.6046281029703096
F35;Xh;female;23;size;13;14;low;big;k;0.6157154028187506
F35;Xh;female;23;size;13;15;low;small;k;0.8791564052226022
F35;Xh;female;23;size;13;16;low;small;k;0.5525614512735046
F35;Xh;female;23;size;14;1;high;small;s;0.6388618386117741
F35;Xh;female;23;size;14;2;high;big;s;0.7304627195117064
F35;Xh;female;23;size;14;3;high;big;s;0.6163509252364747
F35;Xh;female;23;size;14;4;low;big;k;0.6175990754272789
F35;Xh;female;23;size;14;5;low;small;k;0.6681199471349828
F35;Xh;female;23;size;14;6;low;big;k;0.7714274661848322
F35;Xh;female;23;size;14;7;low;small;k;0.5894584599300288
F35;Xh;female;23;size;14;8;high;big;s;0.9499453095486388
F35;Xh;female;23;size;14;9;high;big;s;0.5087636957759969
F35;Xh;female;23;size;14;10;low;big;k;0.6592455283971503
F35;Xh;female;23;size;14;11;low;small;k;0.49024354718858376
F35;Xh;female;23;size;14;12;low;small;k;0.5459074134705588
F35;Xh;female;23;size;14;13;high;small;k;0.5127682762686163
F35;Xh;female;23;size;14;14;high;small;s;0.24539966665906832
F35;Xh;female;23;size;14;15;low;small;k;0.7980605909251608
F35;Xh;female;23;size;14;16;high;big;s;0.9740876602591015
F35;Xh;female;23;size;15;1;low;small;k;1.0713529798085801
F35;Xh;female;23;size;15;2;high;big;s;0.8591346869361587
F35;Xh;female;23;size;15;3;low;small;k;0.7569513714988716
F35;Xh;female;23;size;15;4;low;big;k;0.993307278258726
F35;Xh;female;23;size;15;5;low;small;k;0.5756940713617951
F35;Xh;female;23;size;15;6;high;small;s;0.6809874991886318
F35;Xh;female;23;size;15;7;low;big;k;0.616050137556158
F35;Xh;female;23;size;15;8;low;small;k;0.36896179721225053
F35;Xh;female;23;size;15;9;low;small;k;0.48466002906206995
F35;Xh;female;23;size;15;10;high;big;s;0.587577155791223
F35;Xh;female;23;size;15;11;high;big;k;0.3859227449866012
F35;Xh;female;23;size;15;12;high;small;s;0.16455056134145707
F35;Xh;female;23;size;15;13;low;big;k;0.9460678335744888
F35;Xh;female;23;size;15;14;high;big;s;1.3206984114367515
F35;Xh;female;23;size;15;15;high;small;s;0.7943011404713616
F35;Xh;female;23;size;15;16;high;big;s;0.5863992683589458
F35;Xh;female;23;size;16;1;high;big;s;0.5853757219738327
F35;Xh;female;23;size;16;2;low;big;k;0.5899281938909553
F35;Xh;female;23;size;16;3;low;big;k;0.6365242215106264
F35;Xh;female;23;size;16;4;low;big;k;0.5964780217618681
F35;Xh;female;23;size;16;5;low;big;k;0.4984911277424544
F35;Xh;female;23;size;16;6;low;small;k;0.4307712833979167
F35;Xh;female;23;size;16;7;high;small;k;0.4715536627336405
F35;Xh;female;23;size;16;8;high;big;s;0.7229825026006438
F35;Xh;female;23;size;16;9;low;small;k;0.8422045284532942
F35;Xh;female;23;size;16;10;high;big;s;0.6809105259599164
F35;Xh;female;23;size;16;11;low;small;s;0.8655913575785235
F35;Xh;female;23;size;16;12;high;small;s;1.9107402888475917
F35;Xh;female;23;size;16;13;high;small;s;0.8217193920281716
F35;Xh;female;23;size;16;14;high;big;s;0.6917554588872008
F35;Xh;female;23;size;16;15;low;small;k;1.2212442896561697
F35;Xh;female;23;size;16;16;high;small;s;1.386660898278933
F35;Xh;female;23;height;17;1;low;low;k;3.4376483461237513
F35;Xh;female;23;height;17;2;low;high;k;0.6454542978317477
F35;Xh;female;23;height;17;3;high;high;s;0.7570792654296383
F35;Xh;female;23;height;17;4;high;low;s;1.5787828680477105
F35;Xh;female;23;height;17;5;low;low;k;0.9787092105834745
F35;Xh;female;23;height;17;6;low;high;k;1.5993390567600727
F35;Xh;female;23;height;17;7;high;low;s;1.1819038750836626
F35;Xh;female;23;height;17;8;high;low;s;0.7750408648862503
F35;Xh;female;23;height;17;9;high;high;s;0.6417445839615539
F35;Xh;female;23;height;17;10;low;low;k;0.8500127696897835
F35;Xh;female;23;height;17;11;low;low;k;0.5061039754073136
F35;Xh;female;23;height;17;12;high;high;s;0.7914633948821574
F35;Xh;female;23;height;17;13;high;low;s;0.6266558615025133
F35;Xh;female;23;height;17;14;low;high;k;0.5483859507949091
F35;Xh;female;23;height;17;15;low;high;k;0.19702220265753567
F35;Xh;female;23;height;17;16;high;high;s;0.6315241208067164
F35;Xh;female;23;height;18;1;high;high;s;0.8075452691409737
F35;Xh;female;23;height;18;2;low;high;k;0.7540508630918339
F35;Xh;female;23;height;18;3;high;low;s;0.6159329014481045
F35;Xh;female;23;height;18;4;high;low;k;0.5444299225928262
F35;Xh;female;23;height;18;5;high;high;s;0.28247470047790557
F35;Xh;female;23;height;18;6;low;low;s;0.49449167877901345
F35;Xh;female;23;height;18;7;high;high;s;0.8075129009084776
F35;Xh;female;23;height;18;8;high;low;s;0.7546536225127056
F35;Xh;female;23;height;18;9;low;high;k;0.6832789323525503
F35;Xh;female;23;height;18;10;low;low;k;1.0189867247245274
F35;Xh;female;23;height;18;11;low;low;k;0.7627650197246112
F35;Xh;female;23;height;18;12;low;high;k;0.5772824825835414
F35;Xh;female;23;height;18;13;high;high;s;0.6829319607932121
F35;Xh;female;23;height;18;14;high;low;s;0.5012519001611508
F35;Xh;female;23;height;18;15;low;high;k;0.8931615817709826
F35;Xh;female;23;height;18;16;low;low;k;0.6038181079784408
F35;Xh;female;23;height;19;1;high;low;s;0.6776413356419653
F35;Xh;female;23;height;19;2;high;low;s;0.4394964926177636
F35;Xh;female;23;height;19;3;low;low;k;0.777121115126647
F35;Xh;female;23;height;19;4;low;high;s;0.39566479000495747
F35;Xh;female;23;height;19;5;high;low;s;0.8693701499141753
F35;Xh;female;23;height;19;6;low;high;k;0.7186723976628855
F35;Xh;female;23;height;19;7;high;low;s;1.474522460193839
F35;Xh;female;23;height;19;8;high;high;s;0.880395476531703
F35;Xh;female;23;height;19;9;low;high;k;0.7631372542819008
F35;Xh;female;23;height;19;10;high;low;s;0.9015338984318078
F35;Xh;female;23;height;19;11;low;low;k;0.8771329966839403
F35;Xh;female;23;height;19;12;low;high;k;0.9592705150716938
F35;Xh;female;23;height;19;13;low;high;k;0.565636238839943
F35;Xh;female;23;height;19;14;low;low;k;1.6019241723115556
F35;Xh;female;23;height;19;15;high;high;s;0.9518317452748306
F35;Xh;female;23;height;19;16;high;high;s;0.9739526610355824
F35;Xh;female;23;height;20;1;high;high;s;1.8571823306265287
F35;Xh;female;23;height;20;2;low;low;k;0.7185950297280215
F35;Xh;female;23;height;20;3;high;high;s;0.47842046240111813
F35;Xh;female;23;height;20;4;low;low;k;0.590023719589226
F35;Xh;female;23;height;20;5;low;high;k;0.6683540246449411
F35;Xh;female;23;height;20;6;high;high;k;0.603070875746198
F35;Xh;female;23;height;20;7;low;low;k;0.8574724603677168
F35;Xh;female;23;height;20;8;high;high;s;0.781119774619583
F35;Xh;female;23;height;20;9;high;high;s;1.151909586857073
F35;Xh;female;23;height;20;10;low;low;k;1.3853018277441151
F35;Xh;female;23;height;20;11;low;low;k;0.8600042868056335
F35;Xh;female;23;height;20;12;low;high;k;0.7030938098323531
F35;Xh;female;23;height;20;13;high;low;s;2.1284619687357917
F35;Xh;female;23;height;20;14;low;high;k;1.4459618473774754
F35;Xh;female;23;height;20;15;high;low;s;0.7240131541038863
F35;Xh;female;23;height;20;16;high;low;s;0.5897091162623838
