participant;language;gender;age;condition;block;trial;sound;visual;key;RT
F36;Xh;female;18;height;1;1;low;high;s;0.7667218373971991
F36;Xh;female;18;height;1;2;high;low;k;0.5357433973695152
F36;Xh;female;18;height;1;3;high;low;k;0.5818365333834663
F36;Xh;female;18;height;1;4;low;high;s;0.5242455737898126
F36;Xh;female;18;height;1;5;high;low;k;0.5149412891478278
F36;Xh;female;18;height;1;6;high;low;k;0.47602442459901795
F36;Xh;female;18;height;1;7;low;high;s;0.5228545297286473
F36;Xh;female;18;height;1;8;low;high;s;0.5520940857823007
F36;Xh;female;18;height;1;9;low;high;s;0.49822783994022757
F36;Xh;female;18;height;1;10;high;high;k;0.5583640469121747
F36;Xh;female;18;height;1;11;high;high;k;0.4580770356114954
F36;Xh;female;18;height;1;12;low;low;s;0.5646162451594137
F36;Xh;female;18;height;1;13;low;low;s;0.5304148776922375
F36;Xh;female;18;height;1;14;high;low;k;0.526247271860484
F36;Xh;female;18;height;1;15;high;low;k;0.49640140385599807
F36;Xh;female;18;height;1;16;low;high;s;0.5880595212220214
F36;Xh;female;18;height;2;1;high;high;s;0.5944384291651659
F36;Xh;female;18;height;2;2;high;high;s;0.6356672531110235
F36;Xh;female;18;height;2;3;low;low;s;0.6309782031457871
F36;Xh;female;18;height;2;4;low;high;s;0.5782073452719487
F36;Xh;female;18;height;2;5;low;low;s;0.626749018789269
F36;Xh;female;18;height;2;6;high;high;k;0.5005492729251273
F36;Xh;female;18;height;2;7;low;high;k;0.6537583254394121
F36;Xh;female;18;height;2;8;low;high;s;0.7993205831153318
F36;Xh;female;18;height;2;9;high;low;k;0.6000282629975118
F36;Xh;female;18;height;2;10;low;low;s;0.5883334669051692
F36;Xh;female;18;height;2;11;high;high;k;0.5984284044825472
F36;Xh;female;18;height;2;12;low;low;s;0.6536529313889332
F36;Xh;female;18;height;2;13;low;low;s;0.5410742854583077
F36;Xh;female;18;height;2;14;high;high;k;0.6037920555099845
F36;Xh;female;18;height;2;15;high;low;k;0.5821491630631499
F36;Xh;female;18;height;2;16;high;low;k;0.5430791415274143
F36;Xh;female;18;size;3;1;high;big;k;0.6225683867232874
F36;Xh;female;18;size;3;2;high;small;k;0.48167583701433614
F36;Xh;female;18;size;3;3;high;small;k;0.5355172145646065
F36;Xh;female;18;size;3;4;low;big;s;0.5718718581483699
F36;Xh;female;18;size;3;5;low;big;s;0.5674330698093399
F36;Xh;female;18;size;3;6;low;big;s;0.6585417169262655
F36;Xh;female;18;size;3;7;low;big;s;0.6539564821287058
F36;Xh;female;18;size;3;8;low;small;s;0.6299088676460087
F36;Xh;female;18;size;3;9;high;small;k;0.64428904192755
F36;Xh;female;18;size;3;10;low;big;s;0.79994781606365
F36;Xh;female;18;size;3;11;high;small;k;0.5620406031375751
F36;Xh;female;18;size;3;12;high;small;k;0.6072538762236945
F36;Xh;female;18;size;3;13;low;big;s;0.6865769382566214
F36;Xh;female;18;size;3;14;high;big;s;0.6306470209965482
F36;Xh;female;18;size;3;15;high;small;k;0.7006839562673122
F36;Xh;female;18;size;3;16;low;small;s;0.6377771084662527
F36;Xh;female;18;height;4;1;high;low;k;0.7403883160441183
F36;Xh;female;18;height;4;2;high;high;k;0.6698615153436549
F36;Xh;female;18;height;4;3;low;high;s;0.6147025143145584
F36;Xh;female;18;height;4;4;high;high;k;0.5935269874171354
F36;Xh;female;18;height;4;5;low;low;s;0.653019777382724
F36;Xh;female;18;height;4;6;high;low;k;0.5859192712814547
F36;Xh;female;18;height;4;7;low;high;s;0.6558152863872238
F36;Xh;female;18;height;4;8;low;low;s;0.6917313801241107
F36;Xh;female;18;height;4;9;low;low;s;0.581489561824128
F36;Xh;female;18;height;4;10;high;low;k;0.6521849141572602
F36;Xh;female;18;height;4;11;high;high;k;0.5680089872912504
F36;Xh;female;18;height;4;12;low;high;s;0.5647244023857638
F36;Xh;female;18;height;4;13;low;low;s;0.6131362082087435
F36;Xh;female;18;height;4;14;high;low;k;0.5739402664476074
F36;Xh;female;18;height;4;15;low;high;s;0.7967054677428678
F36;Xh;female;18;height;4;16;high;high;k;0.5880046531674452
F36;Xh;female;18;height;5;1;low;low;s;0.7679320930619724
F36;Xh;female;18;height;5;2;high;low;k;0.594477113103494
F36;Xh;female;18;height;5;3;low;high;s;0.7139541374053806
F36;Xh;female;18;height;5;4;high;high;k;0.5999883948243223
F36;Xh;female;18;height;5;5;high;high;k;0.6578248792211525
F36;Xh;female;18;height;5;6;low;low;s;0.5427976958453655
F36;Xh;female;18;height;5;7;low;high;s;0.6966691127163358
F36;Xh;female;18;height;5;8;high;low;k;0.5866538720438257
F36;Xh;female;18;height;5;9;low;high;s;0.6355634379433468
F36;Xh;female;18;height;5;10;high;low;k;0.5212412502150983
F36;Xh;female;18;height;5;11;high;low;k;0.5993047148222104
F36;Xh;female;18;height;5;12;high;high;k;0.5652790042222477
F36;Xh;female;18;height;5;13;high;high;k;0.5522807951201685
F36;Xh;female;18;height;5;14;low;low;s;0.5728318522451445
F36;Xh;female;18;height;5;15;low;low;s;0.6503565043676645
F36;Xh;female;18;height;5;16;low;high;s;0.6304334697197191
F36;Xh;female;18;height;6;1;high;high;k;0.5215404588961974
F36;Xh;female;18;height;6;2;high;low;k;0.565513081732206
F36;Xh;female;18;height;6;3;high;high;k;0.507871596084442
F36;Xh;female;18;height;6;4;high;low;k;0.49372984137153253
F36;Xh;female;18;height;6;5;high;low;k;0.5230025551281869
F36;Xh;female;18;height;6;6;low;low;s;0.5439830832765438
F36;Xh;female;18;height;6;7;low;high;s;0.5093336923164316
F36;Xh;female;18;height;6;8;low;low;s;0.5122957791900262
F36;Xh;female;18;height;6;9;low;high;s;0.5045388534781523
F36;Xh;female;18;height;6;10;low;high;s;0.524582676938735
F36;Xh;female;18;height;6;11;high;low;k;0.5814011413021944
F36;Xh;female;18;height;6;12;low;high;s;0.6895994195947424
F36;Xh;female;18;height;6;13;high;low;k;0.5356545821414329
F36;Xh;female;18;height;6;14;low;high;s;0.5859697972773574
F36;Xh;female;18;height;6;15;high;high;k;0.5253729351679794
F36;Xh;female;18;height;6;16;low;low;s;0.5080247530131601
F36;Xh;female;18;height;7;1;low;low;s;0.6519030737690628
F36;Xh;female;18;height;7;2;high;high;k;0.551326722081285
F36;Xh;female;18;height;7;3;low;low;s;0.4789632222382352
F36;Xh;female;18;height;7;4;low;low;s;0.6818405202357098
F36;Xh;female;18;height;7;5;high;high;k;0.5756747294217348
F36;Xh;female;18;height;7;6;high;low;k;0.5602832456352189
F36;Xh;female;18;height;7;7;high;low;k;0.48066452745115384
F36;Xh;female;18;height;7;8;low;low;s;0.5524126363452524
F36;Xh;female;18;height;7;9;low;high;k;0.4903177572414279
F36;Xh;female;18;height;7;10;high;high;k;0.6608899918501265
F36;Xh;female;18;height;7;11;high;low;k;0.6048463910701685
F36;Xh;female;18;height;7;12;high;low;k;0.4953861469984986
F36;Xh;female;18;height;7;13;low;high;s;0.4994763847789727
F36;Xh;female;18;height;7;14;low;high;s;0.49991927680093795
F36;Xh;female;18;height;7;15;low;high;s;0.5116428885376081
F36;Xh;female;18;height;7;16;high;high;k;0.5498764678486623
F36;Xh;female;18;size;8;1;low;small;s;0.7204787023365498
F36;Xh;female;18;size;8;2;high;small;k;0.5683764850255102
F36;Xh;female;18;size;8;3;high;big;k;0.6214962881058455
F36;Xh;female;18;size;8;4;high;small;k;0.5907670044689439
F36;Xh;female;18;size;8;5;low;small;s;0.6528970149811357
F36;Xh;female;18;size;8;6;low;small;s;0.6343251561047509
F36;Xh;female;18;size;8;7;low;big;s;0.5899337201262824
F36;Xh;female;18;size;8;8;high;big;k;0.5920210756594315
F36;Xh;female;18;size;8;9;low;small;s;0.5531650001648813
F36;Xh;female;18;size;8;10;high;small;k;0.5580676014069468
F36;Xh;female;18;size;8;11;low;big;s;0.5507583045400679
F36;Xh;female;18;size;8;12;high;big;k;0.5771060363040306
F36;Xh;female;18;size;8;13;low;big;s;0.5696708191535436
F36;Xh;female;18;size;8;14;high;big;k;0.5496400219271891
F36;Xh;female;18;size;8;15;high;big;k;0.6244200858636759
F36;Xh;female;18;size;8;16;low;small;s;0.5776468224357814
F36;Xh;female;18;height;9;1;high;high;s;0.5964448641170748
F36;Xh;female;18;height;9;2;high;high;k;0.48798606113996357
F36;Xh;female;18;height;9;3;low;high;s;0.5828320535365492
F36;Xh;female;18;height;9;4;low;high;s;0.7242361790849827
F36;Xh;female;18;height;9;5;low;low;s;0.6429591816850007
F36;Xh;female;18;height;9;6;high;low;k;0.6064971703453921
F36;Xh;female;18;height;9;7;high;low;k;0.5681364865158685
F36;Xh;female;18;height;9;8;low;high;s;1.129941433260683
F36;Xh;female;18;height;9;9;high;low;k;0.6132179182604887
F36;Xh;female;18;height;9;10;low;high;s;0.7308167962473817
F36;Xh;female;18;height;9;11;low;low;s;0.6195111688575707
F36;Xh;female;18;height;9;12;low;low;s;0.5129206437850371
F36;Xh;female;18;height;9;13;high;high;k;0.5149827363202348
F36;Xh;female;18;height;9;14;high;low;k;0.46906052029225975
F36;Xh;female;18;height;9;15;high;low;k;0.5269198993337341
F36;Xh;female;18;height;9;16;low;high;s;0.5310957945184782
F36;Xh;female;18;size;10;1;high;small;k;0.492430770478677
F36;Xh;female;18;size;10;2;high;big;k;0.4568533589481376
F36;Xh;female;18;size;10;3;low;small;s;0.708511144737713
F36;Xh;female;18;size;10;4;high;big;k;0.5061548961675726
F36;Xh;female;18;size;10;5;high;big;k;0.5634438839624636
F36;Xh;female;18;size;10;6;low;small;s;0.47866361879277974
F36;Xh;female;18;size;10;7;low;small;k;0.4998237511026673
F36;Xh;female;18;size;10;8;low;small;s;0.5446486054570414
F36;Xh;female;18;size;10;9;low;big;s;0.555617879726924
F36;Xh;female;18;size;10;10;high;big;k;0.6121245039394125
F36;Xh;female;18;size;10;11;high;big;k;0.5586640450637788
F36;Xh;female;18;size;10;12;high;big;k;0.5578876025392674
F36;Xh;female;18;size;10;13;low;small;s;0.5920909436536022
F36;Xh;female;18;size;10;14;low;small;s;0.5155033909832127
F36;Xh;female;18;size;10;15;high;small;k;0.5594464087043889
F36;Xh;female;18;size;10;16;low;big;s;0.5845448061008938
F36;Xh;female;18;size;11;1;high;big;k;0.4877354048076086
F36;Xh;female;18;size;11;2;low;small;s;0.5280646291212179
F36;Xh;female;18;size;11;3;high;big;k;0.5285513366106898
F36;Xh;female;18;size;11;4;high;big;k;0.5361795788630843
F36;Xh;female;18;size;11;5;high;big;k;0.531153820513282
F36;Xh;female;18;size;11;6;high;big;k;0.5367045756429434
F36;Xh;female;18;size;11;7;high;small;k;0.5735305321286432
F36;Xh;female;18;size;11;8;low;small;s;0.5794326008763164
F36;Xh;female;18;size;11;9;high;big;k;0.5418290176312439
F36;Xh;female;18;size;11;10;low;small;s;0.5534215774969198
F36;Xh;female;18;size;11;11;low;small;s;0.5781224773963913
F36;Xh;female;18;size;11;12;low;small;s;0.5422612517722882
F36;Xh;female;18;size;11;13;low;big;s;0.5305281665059738
F36;Xh;female;18;size;11;14;high;small;k;0.5497758105630055
F36;Xh;female;18;size;11;15;low;small;s;0.610747275641188
F36;Xh;female;18;size;11;16;low;big;s;0.7134536141529679
F36;Xh;female;18;size;12;1;low;small;s;0.5393342962488532
F36;Xh;female;18;size;12;2;high;small;k;0.5708230488235131
F36;Xh;female;18;size;12;3;high;big;k;0.5513733007246628
F36;Xh;female;18;size;12;4;high;big;k;0.5987343236338347
F36;Xh;female;18;size;12;5;high;small;k;0.5354939252720214
F36;Xh;female;18;size;12;6;low;small;s;0.5803515425650403
F36;Xh;female;18;size;12;7;high;big;k;0.5984797198907472
F36;Xh;female;18;size;12;8;low;small;s;0.543252824631054
F36;Xh;female;18;size;12;9;low;big;s;0.6244074542773888
F36;Xh;female;18;size;12;10;high;small;k;0.5669238624977879
F36;Xh;female;18;size;12;11;low;small;s;0.6587528997915797
F36;Xh;female;18;size;12;12;high;big;k;0.5002729588886723
F36;Xh;female;18;size;12;13;high;big;k;0.5800582549418323
F36;Xh;female;18;size;12;14;low;big;s;0.5927292291307822
F36;Xh;female;18;size;12;15;low;small;s;0.5775816912646405
F36;Xh;female;18;size;12;16;low;big;s;0.521480459254235
F36;Xh;female;18;size;13;1;low;big;s;0.5298859336180612
F36;Xh;female;18;size;13;2;high;small;k;0.5562526126159355
F36;Xh;female;18;size;13;3;high;big;k;0.5448751830263063
F36;Xh;female;18;size;13;4;high;small;k;0.5621467867749743
F36;Xh;female;18;size;13;5;high;small;k;0.5522318480652757
F36;Xh;female;18;size;13;6;low;big;s;0.5359332646476105
F36;Xh;female;18;size;13;7;high;big;k;0.5808710130513646
F36;Xh;female;18;size;13;8;low;small;s;0.5420646740822122
F36;Xh;female;18;size;13;9;low;small;s;0.543805058056023
F36;Xh;female;18;size;13;10;high;big;k;0.5694296364672482
F36;Xh;female;18;size;13;11;low;small;s;0.5066984454169869
F36;Xh;female;18;size;13;12;high;big;k;0.7389747721608728
F36;Xh;female;18;size;13;13;low;small;s;0.7219269828055985
F36;Xh;female;18;size;13;14;high;small;k;0.6907646755571477
F36;Xh;female;18;size;13;15;low;big;s;0.570962784870062
F36;Xh;female;18;size;13;16;low;big;s;0.6861525987624191
F36;Xh;female;18;height;14;1;high;high;k;0.5652063730522059
F36;Xh;female;18;height;14;2;high;high;k;0.41584203363163397
F36;Xh;female;18;height;14;3;high;low;k;0.5062670006882399
F36;Xh;female;18;height;14;4;high;high;k;0.5877579441294074
F36;Xh;female;18;height;14;5;low;high;s;0.5509615927003324
F36;Xh;female;18;height;14;6;low;high;s;0.5297343555721454
F36;Xh;female;18;height;14;7;high;high;k;0.6136754153994843
F36;Xh;female;18;height;14;8;high;high;k;0.6260819176677614
F36;Xh;female;18;height;14;9;low;high;s;0.7752338899881579
F36;Xh;female;18;height;14;10;low;low;s;0.5880295214010403
F36;Xh;female;18;height;14;11;high;low;k;0.5311660572770052
F36;Xh;female;18;height;14;12;low;low;s;0.549349102715496
F36;Xh;female;18;height;14;13;low;low;s;0.4962612731033005
F36;Xh;female;18;height;14;14;low;low;s;0.5257001700229011
F36;Xh;female;18;height;14;15;high;low;k;0.6339773951331154
F36;Xh;female;18;height;14;16;low;low;s;0.5647571653244086
F36;Xh;female;18;height;15;1;low;low;s;0.5226543993339874
F36;Xh;female;18;height;15;2;high;low;k;0.5507760675973259
F36;Xh;female;18;height;15;3;low;low;s;0.5777076115482487
F36;Xh;female;18;height;15;4;high;low;k;0.525538723624777
F36;Xh;female;18;height;15;5;low;low;s;0.5059452921850607
F36;Xh;female;18;height;15;6;high;high;k;0.49343102745478973
F36;Xh;female;18;height;15;7;high;low;k;0.5824167929240502
F36;Xh;female;18;height;15;8;high;high;k;0.5059433185379021
F36;Xh;female;18;height;15;9;high;high;k;0.4970535050961189
F36;Xh;female;18;height;15;10;low;high;s;0.5396919255726971
F36;Xh;female;18;height;15;11;high;high;s;0.45551363035338
F36;Xh;female;18;height;15;12;low;low;s;1.4672036896809004
F36;Xh;female;18;height;15;13;low;high;k;0.8099878856446594
F36;Xh;female;18;height;15;14;high;high;s;1.0400702785118483
F36;Xh;female;18;height;15;15;low;high;s;1.1383998019737191
F36;Xh;female;18;height;15;16;low;low;s;0.7444153963588178
F36;Xh;female;18;size;16;1;low;big;s;0.49880217848112807
F36;Xh;female;18;size;16;2;high;big;k;0.5899676672997884
F36;Xh;female;18;size;16;3;low;big;s;0.4803179506561719
F36;Xh;female;18;size;16;4;high;big;k;0.5550909092999063
F36;Xh;female;18;size;16;5;high;small;k;0.6596971045364626
F36;Xh;female;18;size;16;6;high;big;k;0.5605342966737226
F36;Xh;female;18;size;16;7;low;small;s;0.7333253333927132
F36;Xh;female;18;size;16;8;low;small;s;0.5834770495421253
F36;Xh;female;18;size;16;9;high;big;k;0.5900718771736138
F36;Xh;female;18;size;16;10;high;small;k;0.5470012224977836
F36;Xh;female;18;size;16;11;low;small;s;0.5740989496698603
F36;Xh;female;18;size;16;12;low;small;s;0.6331658212002367
F36;Xh;female;18;size;16;13;low;big;s;0.514313661493361
F36;Xh;female;18;size;16;14;low;big;s;0.4851210788474418
F36;Xh;female;18;size;16;15;high;small;k;0.6458146903314628
F36;Xh;female;18;size;16;16;high;small;k;0.5150991829577833
F36;Xh;female;18;height;17;1;low;low;s;0.7191192370373756
F36;Xh;female;18;height;17;2;low;high;s;0.5691864800173789
F36;Xh;female;18;height;17;3;high;high;k;0.55230132129509
F36;Xh;female;18;height;17;4;high;low;k;0.5140933996881358
F36;Xh;female;18;height;17;5;high;high;k;0.5017295288271271
F36;Xh;female;18;height;17;6;low;low;s;0.7151284722494893
F36;Xh;female;18;height;17;7;low;high;s;0.5953932916163467
F36;Xh;female;18;height;17;8;high;low;k;0.5810750907403417
F36;Xh;female;18;height;17;9;high;low;k;0.5126786716282368
F36;Xh;female;18;height;17;10;low;low;s;0.6154394834884442
F36;Xh;female;18;height;17;11;high;high;k;0.7036527537275106
F36;Xh;female;18;height;17;12;low;low;s;0.5172895641298965
F36;Xh;female;18;height;17;13;low;high;s;0.6380636856192723
F36;Xh;female;18;height;17;14;high;low;k;0.5412862578523345
F36;Xh;female;18;height;17;15;low;high;s;0.6261509961914271
F36;Xh;female;18;height;17;16;high;high;k;0.48262872581835836
F36;Xh;female;18;size;18;1;low;big;k;0.5781106353388168
F36;Xh;female;18;size;18;2;high;small;k;0.6138794930884615
F36;Xh;female;18;size;18;3;high;big;s;0.5117313090595417
F36;Xh;female;18;size;18;4;low;small;s;0.7437218480627052
F36;Xh;female;18;size;18;5;low;big;s;0.6392297311103903
F36;Xh;female;18;size;18;6;low;big;s;0.6721963693271391
F36;Xh;female;18;size;18;7;low;big;s;0.6195526159135625
F36;Xh;female;18;size;18;8;low;small;s;0.631775566667784
F36;Xh;female;18;size;18;9;high;small;k;0.5773223507567309
F36;Xh;female;18;size;18;10;low;small;s;0.8021599077037536
F36;Xh;female;18;size;18;11;high;big;k;0.5917822613264434
F36;Xh;female;18;size;18;12;high;small;k;0.584780462551862
F36;Xh;female;18;size;18;13;low;small;s;0.6886587674962357
F36;Xh;female;18;size;18;14;high;small;k;0.49145380285335705
F36;Xh;female;18;size;18;15;high;big;s;0.47424733033403754
F36;Xh;female;18;size;18;16;high;big;k;0.7393237173673697
F36;Xh;female;18;size;19;1;high;big;k;0.6333470043027773
F36;Xh;female;18;size;19;2;high;small;k;0.4393058358691633
F36;Xh;female;18;size;19;3;high;big;k;0.5131945894681849
F36;Xh;female;18;size;19;4;high;small;k;0.47488443163456395
F36;Xh;female;18;size;19;5;low;small;s;0.5985594562953338
F36;Xh;female;18;size;19;6;high;big;k;0.6316776725579984
F36;Xh;female;18;size;19;7;high;small;k;0.6121592406416312
F36;Xh;female;18;size;19;8;low;big;s;0.6186467004590668
F36;Xh;female;18;size;19;9;low;small;s;0.6575292231864296
F36;Xh;female;18;size;19;10;low;small;s;0.5249687272007577
F36;Xh;female;18;size;19;11;low;big;s;0.548623580893036
F36;Xh;female;18;size;19;12;high;small;k;0.6006507591810077
F36;Xh;female;18;size;19;13;low;big;s;0.7327134950319305
F36;Xh;female;18;size;19;14;low;small;k;0.5796524679171853
F36;Xh;female;18;size;19;15;high;big;k;0.6996509363525547
F36;Xh;female;18;size;19;16;low;big;s;0.6188188046799041
F36;Xh;female;18;size;20;1;high;big;k;0.7692347165429965
F36;Xh;female;18;size;20;2;low;small;s;0.8297182898968458
F36;Xh;female;18;size;20;3;low;small;s;0.6204814260127023
F36;Xh;female;18;size;20;4;high;small;k;0.5458020193618722
F36;Xh;female;18;size;20;5;high;big;k;0.49344721157103777
F36;Xh;female;18;size;20;6;high;big;k;0.49090709566371515
F36;Xh;female;18;size;20;7;high;small;k;0.4857471276191063
F36;Xh;female;18;size;20;8;low;big;s;0.6007522058789618
F36;Xh;female;18;size;20;9;low;small;s;0.5469854330876842
F36;Xh;female;18;size;20;10;low;big;s;0.504866877803579
F36;Xh;female;18;size;20;11;high;small;k;0.5278206832008436
F36;Xh;female;18;size;20;12;high;big;k;0.4431288385530934
F36;Xh;female;18;size;20;13;low;big;s;0.7381004354683682
F36;Xh;female;18;size;20;14;low;big;s;0.5238145238254219
F36;Xh;female;18;size;20;15;high;small;k;0.5216573002398945
F36;Xh;female;18;size;20;16;low;small;s;0.5567444517510012
