participant;language;gender;age;condition;block;trial;sound;visual;key;RT
F40;Xh;female;21;size;1;1;high;small;k;0.5866680825129151
F40;Xh;female;21;size;1;2;high;small;k;0.49539522582199425
F40;Xh;female;21;size;1;3;low;small;s;0.6108653012197465
F40;Xh;female;21;size;1;4;low;big;s;0.47322417877148837
F40;Xh;female;21;size;1;5;high;small;k;0.5907247678842396
F40;Xh;female;21;size;1;6;low;big;s;0.569184901076369
F40;Xh;female;21;size;1;7;high;big;k;0.5628845453029498
F40;Xh;female;21;size;1;8;high;big;k;0.5895974064478651
F40;Xh;female;21;size;1;9;high;small;k;0.4862839663401246
F40;Xh;female;21;size;1;10;low;big;s;0.5166398312430829
F40;Xh;female;21;size;1;11;low;small;s;0.653072671731934
F40;Xh;female;21;size;1;12;low;small;s;0.5025217607617378
F40;Xh;female;21;size;1;13;low;big;s;0.5684645108412951
F40;Xh;female;21;size;1;14;low;big;s;0.5154931278666481
F40;Xh;female;21;size;1;15;high;big;k;0.6345702861435711
F40;Xh;female;21;size;1;16;high;small;k;0.44452659296803176
F40;Xh;female;21;size;2;1;high;small;k;0.49590917013119906
F40;Xh;female;21;size;2;2;high;big;k;0.44552053429652005
F40;Xh;female;21;size;2;3;low;big;s;0.5616233688779175
F40;Xh;female;21;size;2;4;low;big;s;0.4287095855688676
F40;Xh;female;21;size;2;5;low;small;s;0.5056555571500212
F40;Xh;female;21;size;2;6;low;small;s;0.5503821226302534
F40;Xh;female;21;size;2;7;low;small;s;0.4981342878891155
F40;Xh;female;21;size;2;8;low;small;s;0.66441062791273
F40;Xh;female;21;size;2;9;high;big;k;0.5637521714670584
F40;Xh;female;21;size;2;10;high;small;k;0.4738304908387363
F40;Xh;female;21;size;2;11;high;big;k;0.5034107025712729
F40;Xh;female;21;size;2;12;high;big;k;0.564038353972137
F40;Xh;female;21;size;2;13;low;small;s;1.0775507045909762
F40;Xh;female;21;size;2;14;low;small;s;0.5625612578587607
F40;Xh;female;21;size;2;15;high;big;k;0.659495000494644
F40;Xh;female;21;size;2;16;high;big;k;0.5237122876569629
F40;Xh;female;21;height;3;1;low;low;s;0.5802279906347394
F40;Xh;female;21;height;3;2;low;high;s;0.4441180429421365
F40;Xh;female;21;height;3;3;high;high;s;0.45485008182004094
F40;Xh;female;21;height;3;4;low;high;s;0.7952844238607213
F40;Xh;female;21;height;3;5;high;high;k;0.6937350519001484
F40;Xh;female;21;height;3;6;high;high;k;0.5233293952187523
F40;Xh;female;21;height;3;7;low;high;s;0.6779993596719578
F40;Xh;female;21;height;3;8;low;low;s;0.5628044143086299
F40;Xh;female;21;height;3;9;high;low;k;0.6633255031192675
F40;Xh;female;21;height;3;10;high;low;k;0.5134914297377691
F40;Xh;female;21;height;3;11;low;high;s;0.6431664172559977
F40;Xh;female;21;height;3;12;high;low;k;0.6228541744640097
F40;Xh;female;21;height;3;13;high;low;k;0.5439443993382156
F40;Xh;female;21;height;3;14;low;high;s;0.5750103913014755
F40;Xh;female;21;height;3;15;high;low;k;0.592741860775277
F40;Xh;female;21;height;3;16;low;low;s;0.6171021047048271
F40;Xh;female;21;height;4;1;low;high;s;0.6180861776228994
F40;Xh;female;21;height;4;2;high;low;k;0.5880204425193369
F40;Xh;female;21;height;4;3;low;high;s;0.5364093143725768
F40;Xh;female;21;height;4;4;low;high;s;0.5384840383194387
F40;Xh;female;21;height;4;5;low;high;s;0.5950960566988215
F40;Xh;female;21;height;4;6;low;high;s;0.5059516079491004
F40;Xh;female;21;height;4;7;high;low;k;0.4796859808266163
F40;Xh;female;21;height;4;8;high;low;k;0.4593717644456774
F40;Xh;female;21;height;4;9;high;high;k;0.5288335717050359
F40;Xh;female;21;height;4;10;high;low;k;0.6082430806709453
F40;Xh;female;21;height;4;11;low;high;s;0.5043841176666319
F40;Xh;female;21;height;4;12;low;low;k;0.5670067566679791
F40;Xh;female;21;height;4;13;high;low;k;0.6992613334441558
F40;Xh;female;21;height;4;14;high;low;k;0.6928595309145749
F40;Xh;female;21;height;4;15;low;low;s;0.621266157948412
F40;Xh;female;21;height;4;16;high;high;s;0.731896789628081
F40;Xh;female;21;height;5;1;low;low;s;0.8168554747244343
F40;Xh;female;21;height;5;2;low;low;s;0.5799477293621749
F40;Xh;female;21;height;5;3;high;high;k;0.5147822111612186
F40;Xh;female;21;height;5;4;low;high;s;0.6482580963056535
F40;Xh;female;21;height;5;5;low;low;s;0.6816060480196029
F40;Xh;female;21;height;5;6;high;high;k;0.5979263023473322
F40;Xh;female;21;height;5;7;high;low;k;0.6225312816677615
F40;Xh;female;21;height;5;8;low;high;s;0.6174419710878283
F40;Xh;female;21;height;5;9;low;high;s;0.6176780222449452
F40;Xh;female;21;height;5;10;low;low;s;0.634202788467519
F40;Xh;female;21;height;5;11;high;high;k;0.5962676282506436
F40;Xh;female;21;height;5;12;high;high;k;0.5691355592571199
F40;Xh;female;21;height;5;13;low;low;s;0.6376365830656141
F40;Xh;female;21;height;5;14;high;low;k;0.6286011126358062
F40;Xh;female;21;height;5;15;high;low;k;0.5689622708596289
F40;Xh;female;21;height;5;16;high;high;k;0.5501942289993167
F40;Xh;female;21;height;6;1;low;high;s;0.612828710116446
F40;Xh;female;21;height;6;2;low;low;s;0.5831071833381429
F40;Xh;female;21;height;6;3;high;low;k;0.6392265731701627
F40;Xh;female;21;height;6;4;low;high;s;0.5780297147575766
F40;Xh;female;21;height;6;5;high;high;k;0.6356909371679649
F40;Xh;female;21;height;6;6;high;low;k;0.5650125584797934
F40;Xh;female;21;height;6;7;low;high;s;0.5868228183826432
F40;Xh;female;21;height;6;8;low;low;s;0.6389818377792835
F40;Xh;female;21;height;6;9;high;high;k;0.5992980044102296
F40;Xh;female;21;height;6;10;high;high;k;0.6229781210422516
F40;Xh;female;21;height;6;11;high;low;k;0.6490179599495605
F40;Xh;female;21;height;6;12;low;low;s;0.5521690852474421
F40;Xh;female;21;height;6;13;low;high;s;0.5455951784970239
F40;Xh;female;21;height;6;14;high;low;k;0.5191306053893641
F40;Xh;female;21;height;6;15;low;high;s;0.6722532111452892
F40;Xh;female;21;height;6;16;high;low;k;0.4966789020691067
F40;Xh;female;21;height;7;1;high;high;s;0.5193354726070538
F40;Xh;female;21;height;7;2;high;high;k;0.8137493097456172
F40;Xh;female;21;height;7;3;low;high;s;0.6843380046775565
F40;Xh;female;21;height;7;4;high;high;k;0.8098268338944763
F40;Xh;female;21;height;7;5;high;low;k;0.5684281951980665
F40;Xh;female;21;height;7;6;low;high;s;0.5884258346632123
F40;Xh;female;21;height;7;7;high;low;k;0.7158946517156437
F40;Xh;female;21;height;7;8;low;low;s;0.6375698728952557
F40;Xh;female;21;height;7;9;low;high;s;0.6997823829296976
F40;Xh;female;21;height;7;10;low;low;s;0.5597507489146665
F40;Xh;female;21;height;7;11;high;high;k;0.6165013189893216
F40;Xh;female;21;height;7;12;low;low;s;0.6893862630240619
F40;Xh;female;21;height;7;13;low;low;s;0.5965107847005129
F40;Xh;female;21;height;7;14;high;low;k;0.5501468610018492
F40;Xh;female;21;height;7;15;high;low;k;0.5153794443467632
F40;Xh;female;21;height;7;16;low;high;s;0.5798660191940144
F40;Xh;female;21;height;8;1;high;high;k;0.6506529499311
F40;Xh;female;21;height;8;2;high;high;k;0.5618965250905603
F40;Xh;female;21;height;8;3;low;high;s;0.5908747669309378
F40;Xh;female;21;height;8;4;high;high;k;0.6298480785917491
F40;Xh;female;21;height;8;5;high;low;k;0.5874180777464062
F40;Xh;female;21;height;8;6;low;high;s;0.5436976903583854
F40;Xh;female;21;height;8;7;low;low;s;0.6309699136763811
F40;Xh;female;21;height;8;8;high;high;k;0.5768865639111027
F40;Xh;female;21;height;8;9;low;low;s;0.579978913301602
F40;Xh;female;21;height;8;10;high;high;k;0.5611528453882784
F40;Xh;female;21;height;8;11;high;low;k;0.5327793366741389
F40;Xh;female;21;height;8;12;low;low;s;0.5560990609228611
F40;Xh;female;21;height;8;13;high;low;k;0.5579969439422712
F40;Xh;female;21;height;8;14;low;low;s;0.5860965070314705
F40;Xh;female;21;height;8;15;low;high;s;0.6532589864218608
F40;Xh;female;21;height;8;16;low;low;s;0.6823445960180834
F40;Xh;female;21;size;9;1;high;big;k;0.584340728353709
F40;Xh;female;21;size;9;2;high;big;k;0.5222947963047773
F40;Xh;female;21;size;9;3;high;big;k;0.5299396174959838
F40;Xh;female;21;size;9;4;low;big;s;0.5347080089850351
F40;Xh;female;21;size;9;5;low;big;s;0.5296301457565278
F40;Xh;female;21;size;9;6;low;big;s;0.49991414532996714
F40;Xh;female;21;size;9;7;high;small;k;0.5053180592367426
F40;Xh;female;21;size;9;8;low;small;s;0.5388515359954908
F40;Xh;female;21;size;9;9;high;small;k;0.5415957296499982
F40;Xh;female;21;size;9;10;low;big;s;0.4447421180084348
F40;Xh;female;21;size;9;11;low;small;s;0.6896649455884472
F40;Xh;female;21;size;9;12;high;small;k;0.6208907654508948
F40;Xh;female;21;size;9;13;low;small;s;0.6215894455090165
F40;Xh;female;21;size;9;14;low;small;s;0.5431833514012396
F40;Xh;female;21;size;9;15;high;big;k;0.8258719979785383
F40;Xh;female;21;size;9;16;high;small;k;0.6364385640481487
F40;Xh;female;21;height;10;1;high;low;k;0.9469536175020039
F40;Xh;female;21;height;10;2;high;high;k;0.6459694262593985
F40;Xh;female;21;height;10;3;low;low;s;0.5215108537813649
F40;Xh;female;21;height;10;4;low;high;s;0.600107999285683
F40;Xh;female;21;height;10;5;high;high;k;0.5136059026699513
F40;Xh;female;21;height;10;6;low;high;s;0.5073572570690885
F40;Xh;female;21;height;10;7;low;low;s;0.7560644033364952
F40;Xh;female;21;height;10;8;high;high;k;0.5769386689644307
F40;Xh;female;21;height;10;9;low;low;s;0.6092141271801665
F40;Xh;female;21;height;10;10;high;high;k;0.5252403044141829
F40;Xh;female;21;height;10;11;low;low;s;0.6132775231963024
F40;Xh;female;21;height;10;12;low;high;s;0.6763335805153474
F40;Xh;female;21;height;10;13;high;low;k;0.6013889124151319
F40;Xh;female;21;height;10;14;low;high;s;0.4788613807177171
F40;Xh;female;21;height;10;15;high;low;k;0.5868595285573974
F40;Xh;female;21;height;10;16;high;low;k;0.5887376749888062
F40;Xh;female;21;size;11;1;high;big;s;0.4985909955576062
F40;Xh;female;21;size;11;2;high;small;k;0.8046163398539647
F40;Xh;female;21;size;11;3;high;small;k;0.5788708938052878
F40;Xh;female;21;size;11;4;high;small;k;0.4929624777287245
F40;Xh;female;21;size;11;5;low;big;s;0.5218562463996932
F40;Xh;female;21;size;11;6;low;small;s;0.5789127356838435
F40;Xh;female;21;size;11;7;high;big;k;0.5681163551053032
F40;Xh;female;21;size;11;8;low;small;s;0.6299850514624268
F40;Xh;female;21;size;11;9;low;big;s;0.6232962768990546
F40;Xh;female;21;size;11;10;high;small;k;0.586576109402813
F40;Xh;female;21;size;11;11;high;big;k;0.5473833254072815
F40;Xh;female;21;size;11;12;low;big;s;0.5292038324987516
F40;Xh;female;21;size;11;13;high;small;k;0.4822016232647002
F40;Xh;female;21;size;11;14;low;big;s;0.44754315342288464
F40;Xh;female;21;size;11;15;low;big;s;0.7888103850418702
F40;Xh;female;21;size;11;16;low;small;s;0.6102356999181211
F40;Xh;female;21;size;12;1;high;small;k;0.5504369906848297
F40;Xh;female;21;size;12;2;high;big;k;0.4887621089583263
F40;Xh;female;21;size;12;3;low;big;s;0.46351647563278675
F40;Xh;female;21;size;12;4;high;small;k;0.539133771089837
F40;Xh;female;21;size;12;5;low;big;s;0.43275403429288417
F40;Xh;female;21;size;12;6;low;big;k;0.7643305363599211
F40;Xh;female;21;size;12;7;low;small;s;0.7356396610848606
F40;Xh;female;21;size;12;8;high;small;k;0.6175903911935166
F40;Xh;female;21;size;12;9;low;big;s;0.9132401418173686
F40;Xh;female;21;size;12;10;high;big;k;0.6185353853506967
F40;Xh;female;21;size;12;11;low;small;s;0.5499254149617627
F40;Xh;female;21;size;12;12;low;big;s;0.7024981555296108
F40;Xh;female;21;size;12;13;high;small;k;0.4958811439573765
F40;Xh;female;21;size;12;14;high;big;k;0.6730880743125454
F40;Xh;female;21;size;12;15;low;small;s;0.5977459086570889
F40;Xh;female;21;size;12;16;high;small;k;0.4822584649082273
F40;Xh;female;21;size;13;1;low;big;s;0.6765988420229405
F40;Xh;female;21;size;13;2;high;big;k;0.7286528622498736
F40;Xh;female;21;size;13;3;low;small;s;0.5397748197428882
F40;Xh;female;21;size;13;4;low;big;s;0.5511648809770122
F40;Xh;female;21;size;13;5;low;small;s;0.4946550988825038
F40;Xh;female;21;size;13;6;low;small;s;0.4552006059093401
F40;Xh;female;21;size;13;7;low;big;s;0.5356324770255014
F40;Xh;female;21;size;13;8;high;small;k;0.6195680105593055
F40;Xh;female;21;size;13;9;high;small;k;0.5659555789316073
F40;Xh;female;21;size;13;10;high;small;k;0.5177853505592793
F40;Xh;female;21;size;13;11;high;big;k;0.534677219693549
F40;Xh;female;21;size;13;12;low;small;s;0.6028454824117944
F40;Xh;female;21;size;13;13;high;big;k;0.5384046967374161
F40;Xh;female;21;size;13;14;high;small;k;0.5346132727572694
F40;Xh;female;21;size;13;15;low;big;s;0.5543235456570983
F40;Xh;female;21;size;13;16;high;big;k;0.6069412465440109
F40;Xh;female;21;height;14;1;low;low;s;0.6355729115894064
F40;Xh;female;21;height;14;2;low;high;s;0.44505711598321795
F40;Xh;female;21;height;14;3;high;high;k;0.5051033236086369
F40;Xh;female;21;height;14;4;high;low;k;0.5347332720411941
F40;Xh;female;21;height;14;5;low;high;s;0.48379319231025875
F40;Xh;female;21;height;14;6;high;low;k;0.5784189229598269
F40;Xh;female;21;height;14;7;low;high;s;0.4767369201872498
F40;Xh;female;21;height;14;8;low;high;s;0.6420907659921795
F40;Xh;female;21;height;14;9;high;high;k;0.5926956767216325
F40;Xh;female;21;height;14;10;high;low;k;0.5683180643245578
F40;Xh;female;21;height;14;11;high;high;k;0.6052715199766681
F40;Xh;female;21;height;14;12;low;low;s;0.6095650461502373
F40;Xh;female;21;height;14;13;high;high;k;0.8943311797920614
F40;Xh;female;21;height;14;14;low;low;s;0.5860570336226374
F40;Xh;female;21;height;14;15;high;low;k;0.430159445037134
F40;Xh;female;21;height;14;16;low;low;s;0.6923309817211702
F40;Xh;female;21;size;15;1;low;big;s;1.2538300091400743
F40;Xh;female;21;size;15;2;low;small;s;0.7008035607868806
F40;Xh;female;21;size;15;3;high;big;k;0.6153179052053019
F40;Xh;female;21;size;15;4;high;big;k;0.5658624216448516
F40;Xh;female;21;size;15;5;high;big;k;0.4777300718706101
F40;Xh;female;21;size;15;6;low;big;s;0.7602438511094078
F40;Xh;female;21;size;15;7;low;small;s;0.5560149825178087
F40;Xh;female;21;size;15;8;high;small;k;0.5157808891963214
F40;Xh;female;21;size;15;9;high;small;k;0.6480820447904989
F40;Xh;female;21;size;15;10;low;big;s;0.5927955445367843
F40;Xh;female;21;size;15;11;high;small;k;0.6457100857514888
F40;Xh;female;21;size;15;12;low;small;s;0.5047152998158708
F40;Xh;female;21;size;15;13;high;small;k;0.4860996254719794
F40;Xh;female;21;size;15;14;low;small;s;0.4479363088030368
F40;Xh;female;21;size;15;15;high;big;k;0.5323830234119669
F40;Xh;female;21;size;15;16;low;big;s;0.4824029377195984
F40;Xh;female;21;height;16;1;high;low;k;0.5373223349452019
F40;Xh;female;21;height;16;2;low;low;s;0.5570408973144367
F40;Xh;female;21;height;16;3;high;low;k;0.46484002005308867
F40;Xh;female;21;height;16;4;low;high;s;0.49570982926525176
F40;Xh;female;21;height;16;5;high;high;k;0.4621305631007999
F40;Xh;female;21;height;16;6;low;high;s;0.47397496353369206
F40;Xh;female;21;height;16;7;high;high;k;0.4574466447811574
F40;Xh;female;21;height;16;8;high;high;k;0.6936209737323225
F40;Xh;female;21;height;16;9;low;low;s;0.560721795540303
F40;Xh;female;21;height;16;10;low;high;s;0.5346716934582219
F40;Xh;female;21;height;16;11;high;low;k;0.446454870630987
F40;Xh;female;21;height;16;12;low;low;s;0.8538937981938943
F40;Xh;female;21;height;16;13;high;high;k;0.5520597437862307
F40;Xh;female;21;height;16;14;low;high;s;0.5343460376607254
F40;Xh;female;21;height;16;15;low;low;s;0.7075973346363753
F40;Xh;female;21;height;16;16;high;low;k;0.4623539828462526
F40;Xh;female;21;size;17;1;high;small;k;0.697916078614071
F40;Xh;female;21;size;17;2;high;small;k;0.5148161583347246
F40;Xh;female;21;size;17;3;high;big;k;0.46181240724399686
F40;Xh;female;21;size;17;4;high;big;k;0.498493496212177
F40;Xh;female;21;size;17;5;low;big;s;0.6240758773637936
F40;Xh;female;21;size;17;6;high;big;k;0.6203065586742014
F40;Xh;female;21;size;17;7;high;big;k;0.5690617440268397
F40;Xh;female;21;size;17;8;low;small;s;0.528811861295253
F40;Xh;female;21;size;17;9;low;small;s;0.6487657247344032
F40;Xh;female;21;size;17;10;high;big;k;0.5569414241472259
F40;Xh;female;21;size;17;11;high;small;k;0.521238881861791
F40;Xh;female;21;size;17;12;low;small;s;0.5393433751305565
F40;Xh;female;21;size;17;13;low;small;s;0.5993216884089634
F40;Xh;female;21;size;17;14;low;big;s;0.6405047231819481
F40;Xh;female;21;size;17;15;low;big;s;0.5461379383923486
F40;Xh;female;21;size;17;16;low;small;s;0.6968329274095595
F40;Xh;female;21;size;18;1;high;small;k;0.673556229332462
F40;Xh;female;21;size;18;2;high;big;k;0.5582452319795266
F40;Xh;female;21;size;18;3;high;big;k;0.5077808072092012
F40;Xh;female;21;size;18;4;low;small;s;0.556301164906472
F40;Xh;female;21;size;18;5;high;big;k;0.513804059359245
F40;Xh;female;21;size;18;6;high;small;k;0.5514573791297153
F40;Xh;female;21;size;18;7;low;small;s;0.6154355361359194
F40;Xh;female;21;size;18;8;low;small;s;0.6415851111523807
F40;Xh;female;21;size;18;9;low;small;s;0.6197953775990754
F40;Xh;female;21;size;18;10;high;big;k;0.626103233313188
F40;Xh;female;21;size;18;11;high;big;k;0.5202019144780934
F40;Xh;female;21;size;18;12;low;big;s;0.6436570720979944
F40;Xh;female;21;size;18;13;low;big;s;0.585557299782522
F40;Xh;female;21;size;18;14;low;big;s;0.6470312617020682
F40;Xh;female;21;size;18;15;high;small;k;0.5805962778395042
F40;Xh;female;21;size;18;16;low;small;s;0.7797358358511701
F40;Xh;female;21;height;19;1;low;low;s;0.5888671478023753
F40;Xh;female;21;height;19;2;low;high;s;0.43852189334575087
F40;Xh;female;21;height;19;3;high;high;k;0.6155851404182613
F40;Xh;female;21;height;19;4;high;high;k;0.5528578967787325
F40;Xh;female;21;height;19;5;high;high;k;0.5051479287212715
F40;Xh;female;21;height;19;6;high;low;k;0.5244382041273639
F40;Xh;female;21;height;19;7;low;low;s;0.5572880010586232
F40;Xh;female;21;height;19;8;high;low;s;0.615429615136236
F40;Xh;female;21;height;19;9;low;low;s;1.0944058635504916
F40;Xh;female;21;height;19;10;low;high;s;0.7625037055695429
F40;Xh;female;21;height;19;11;high;high;k;0.5934752771863714
F40;Xh;female;21;height;19;12;low;low;s;0.6063625658862293
F40;Xh;female;21;height;19;13;high;low;k;0.7257184067275375
F40;Xh;female;21;height;19;14;high;high;k;0.5677816203096882
F40;Xh;female;21;height;19;15;low;high;s;0.8662134589394554
F40;Xh;female;21;height;19;16;low;low;s;0.6973389768972993
F40;Xh;female;21;size;20;1;low;small;s;0.6008497052825987
F40;Xh;female;21;size;20;2;high;small;k;0.5867620292119682
F40;Xh;female;21;size;20;3;high;small;k;0.5573728689923882
F40;Xh;female;21;size;20;4;low;small;s;0.4812321555800736
F40;Xh;female;21;size;20;5;high;small;k;0.5232346588745713
F40;Xh;female;21;size;20;6;high;big;k;0.5987655075732619
F40;Xh;female;21;size;20;7;low;big;s;0.5685245104832575
F40;Xh;female;21;size;20;8;high;big;k;0.7541799412574619
F40;Xh;female;21;size;20;9;high;small;k;0.5713740980718285
F40;Xh;female;21;size;20;10;low;big;s;0.5428379587829113
F40;Xh;female;21;size;20;11;low;small;s;0.617959467926994
F40;Xh;female;21;size;20;12;low;big;s;0.8248926617670804
F40;Xh;female;21;size;20;13;low;big;s;0.5795679948059842
F40;Xh;female;21;size;20;14;high;big;k;0.598709455342032
F40;Xh;female;21;size;20;15;low;small;s;0.9079049115534872
F40;Xh;female;21;size;20;16;high;big;k;0.5857325618853793
