participant;language;gender;age;condition;block;trial;sound;visual;key;RT
M39;Xh;male;23;height;1;1;high;high;k;0.8580689040245488
M39;Xh;male;23;height;1;2;low;high;s;1.215224984800443
M39;Xh;male;23;height;1;3;low;high;s;0.9082218833500519
M39;Xh;male;23;height;1;4;high;low;k;0.7713343087816611
M39;Xh;male;23;height;1;5;high;high;k;0.8315356470411643
M39;Xh;male;23;height;1;6;low;low;s;0.7989503222052008
M39;Xh;male;23;height;1;7;high;high;k;0.7572734748246148
M39;Xh;male;23;height;1;8;low;low;s;1.184123071958311
M39;Xh;male;23;height;1;9;high;high;k;0.7563391383737326
M39;Xh;male;23;height;1;10;high;high;k;0.7703340519219637
M39;Xh;male;23;height;1;11;high;low;k;0.7285368103766814
M39;Xh;male;23;height;1;12;high;high;k;0.6665374570293352
M39;Xh;male;23;height;1;13;low;low;s;0.6460266626672819
M39;Xh;male;23;height;1;14;low;low;s;0.6064533548196778
M39;Xh;male;23;height;1;15;low;low;s;0.5499858092516661
M39;Xh;male;23;height;1;16;low;low;s;0.6009258889826015
M39;Xh;male;23;height;2;1;high;low;k;0.8008442579302937
M39;Xh;male;23;height;2;2;high;high;k;0.7493302343646064
M39;Xh;male;23;height;2;3;low;low;s;0.6695145438425243
M39;Xh;male;23;height;2;4;high;low;k;0.7394551639445126
M39;Xh;male;23;height;2;5;high;high;k;0.708918905351311
M39;Xh;male;23;height;2;6;low;low;s;0.6863018084550276
M39;Xh;male;23;height;2;7;high;high;k;0.7847272523213178
M39;Xh;male;23;height;2;8;low;low;s;0.5784891856601462
M39;Xh;male;23;height;2;9;low;high;s;0.8261498908977956
M39;Xh;male;23;height;2;10;high;high;k;0.7178012188524008
M39;Xh;male;23;height;2;11;high;high;k;0.7876727604307234
M39;Xh;male;23;height;2;12;low;high;s;0.6419798455899581
M39;Xh;male;23;height;2;13;low;high;s;0.7440293461550027
M39;Xh;male;23;height;2;14;low;low;s;0.7113496798556298
M39;Xh;male;23;height;2;15;low;low;s;0.6657452250365168
M39;Xh;male;23;height;2;16;high;low;k;0.6871339085046202
M39;Xh;male;23;size;3;1;high;small;k;0.7712016780860722
M39;Xh;male;23;size;3;2;low;big;s;0.6047954703681171
M39;Xh;male;23;size;3;3;low;small;s;0.7971992804668844
M39;Xh;male;23;size;3;4;high;big;k;0.5845598060404882
M39;Xh;male;23;size;3;5;low;small;s;0.6215037881629542
M39;Xh;male;23;size;3;6;high;big;k;0.6650339136831462
M39;Xh;male;23;size;3;7;high;small;k;0.7337473044171929
M39;Xh;male;23;size;3;8;low;big;s;0.6348008110653609
M39;Xh;male;23;size;3;9;high;big;k;0.6318533293670043
M39;Xh;male;23;size;3;10;low;big;s;0.594021589611657
M39;Xh;male;23;size;3;11;high;small;k;0.7998558430699632
M39;Xh;male;23;size;3;12;low;small;k;0.7427969853160903
M39;Xh;male;23;size;3;13;high;big;k;1.3779104260029271
M39;Xh;male;23;size;3;14;low;small;s;0.9615426062373444
M39;Xh;male;23;size;3;15;high;big;k;1.0126532112481073
M39;Xh;male;23;size;3;16;low;small;s;0.8924802701221779
M39;Xh;male;23;height;4;1;high;high;k;0.7086737753124908
M39;Xh;male;23;height;4;2;high;low;k;0.5940859313122928
M39;Xh;male;23;height;4;3;low;high;s;0.6124955542618409
M39;Xh;male;23;height;4;4;high;low;k;0.7772233514115214
M39;Xh;male;23;height;4;5;low;low;s;0.5828786322381347
M39;Xh;male;23;height;4;6;high;low;k;0.6891091595171019
M39;Xh;male;23;height;4;7;low;low;s;0.6683421825291589
M39;Xh;male;23;height;4;8;low;high;s;0.5988922173855826
M39;Xh;male;23;height;4;9;low;high;s;0.5841382296057418
M39;Xh;male;23;height;4;10;high;low;k;0.6879174563800916
M39;Xh;male;23;height;4;11;low;low;s;0.6176598644815385
M39;Xh;male;23;height;4;12;high;high;k;1.3597127754474059
M39;Xh;male;23;height;4;13;high;low;k;0.8289781629573554
M39;Xh;male;23;height;4;14;low;high;s;0.709712321520783
M39;Xh;male;23;height;4;15;low;high;s;0.6470383669948205
M39;Xh;male;23;height;4;16;high;high;k;0.7253102513495833
M39;Xh;male;23;size;5;1;low;big;s;0.6664277208037674
M39;Xh;male;23;size;5;2;low;big;s;0.6523282026173547
M39;Xh;male;23;size;5;3;high;small;k;0.5878546540625393
M39;Xh;male;23;size;5;4;low;small;s;0.6213762888219208
M39;Xh;male;23;size;5;5;high;small;k;0.6628293219255283
M39;Xh;male;23;size;5;6;high;small;k;0.849031854653731
M39;Xh;male;23;size;5;7;low;big;s;0.6688107324298471
M39;Xh;male;23;size;5;8;high;small;k;0.697890420909971
M39;Xh;male;23;size;5;9;low;small;s;0.8326930083567277
M39;Xh;male;23;size;5;10;low;small;s;0.7472697207704186
M39;Xh;male;23;size;5;11;high;big;k;0.6854543136432767
M39;Xh;male;23;size;5;12;low;small;s;0.9615899743512273
M39;Xh;male;23;size;5;13;high;big;k;0.6950447806157172
M39;Xh;male;23;size;5;14;low;big;s;0.6947270195232704
M39;Xh;male;23;size;5;15;high;big;k;0.650635581696406
M39;Xh;male;23;size;5;16;high;big;k;1.0835032993927598
M39;Xh;male;23;size;6;1;high;small;k;0.655541340704076
M39;Xh;male;23;size;6;2;low;big;s;0.5771968251792714
M39;Xh;male;23;size;6;3;low;big;s;0.5849955927114934
M39;Xh;male;23;size;6;4;low;small;s;0.5946744802640751
M39;Xh;male;23;size;6;5;high;small;k;0.6286686122184619
M39;Xh;male;23;size;6;6;low;big;k;0.9146813170518726
M39;Xh;male;23;size;6;7;high;big;k;1.3069766542175785
M39;Xh;male;23;size;6;8;low;small;s;0.9233354741008952
M39;Xh;male;23;size;6;9;low;big;s;0.7510883813956752
M39;Xh;male;23;size;6;10;low;small;s;0.7404234473360702
M39;Xh;male;23;size;6;11;high;big;k;0.7340536183910444
M39;Xh;male;23;size;6;12;high;small;k;1.5960848663235083
M39;Xh;male;23;size;6;13;high;small;k;1.2620069324038923
M39;Xh;male;23;size;6;14;high;big;k;0.8145162786822766
M39;Xh;male;23;size;6;15;high;small;k;0.6934808429796249
M39;Xh;male;23;size;6;16;low;big;s;0.678702776436694
M39;Xh;male;23;size;7;1;high;big;k;0.8489971179515123
M39;Xh;male;23;size;7;2;low;big;s;0.6573875135509297
M39;Xh;male;23;size;7;3;high;small;k;1.7641142219072208
M39;Xh;male;23;size;7;4;low;small;s;0.6262374429497868
M39;Xh;male;23;size;7;5;high;big;k;0.7490424730349332
M39;Xh;male;23;size;7;6;low;small;s;0.5880378108704463
M39;Xh;male;23;size;7;7;low;big;s;0.591110028559342
M39;Xh;male;23;size;7;8;high;big;k;0.7832319984445348
M39;Xh;male;23;size;7;9;low;small;s;0.7915723415790126
M39;Xh;male;23;size;7;10;high;small;k;0.6936036053812131
M39;Xh;male;23;size;7;11;high;big;k;1.5753174946876243
M39;Xh;male;23;size;7;12;low;small;s;0.956373164546676
M39;Xh;male;23;size;7;13;low;big;s;0.7671678871847689
M39;Xh;male;23;size;7;14;high;small;k;0.8942186805652454
M39;Xh;male;23;size;7;15;low;big;s;0.6646383897168562
M39;Xh;male;23;size;7;16;high;small;k;0.6602860481943935
M39;Xh;male;23;size;8;1;high;big;k;0.6985381800914183
M39;Xh;male;23;size;8;2;low;small;s;0.6099514911184087
M39;Xh;male;23;size;8;3;low;small;s;0.6773516006069258
M39;Xh;male;23;size;8;4;high;big;k;0.6614307779818773
M39;Xh;male;23;size;8;5;low;small;s;0.7193604197818786
M39;Xh;male;23;size;8;6;high;small;k;0.6414505067514256
M39;Xh;male;23;size;8;7;high;small;k;0.5923048896947876
M39;Xh;male;23;size;8;8;high;small;k;0.5778674789471552
M39;Xh;male;23;size;8;9;high;big;k;0.6857776012038812
M39;Xh;male;23;size;8;10;low;big;s;0.6740524105262011
M39;Xh;male;23;size;8;11;high;small;k;0.7589424117468297
M39;Xh;male;23;size;8;12;low;big;s;0.6157750077545643
M39;Xh;male;23;size;8;13;low;big;s;0.7147795270429924
M39;Xh;male;23;size;8;14;high;big;k;0.7538069172296673
M39;Xh;male;23;size;8;15;low;small;s;0.9061301857000217
M39;Xh;male;23;size;8;16;low;big;s;0.8840258488198742
M39;Xh;male;23;height;9;1;low;high;s;0.9358773701824248
M39;Xh;male;23;height;9;2;low;low;s;0.7170559602091089
M39;Xh;male;23;height;9;3;high;low;k;0.6715533470269293
M39;Xh;male;23;height;9;4;low;high;s;0.9616578686982393
M39;Xh;male;23;height;9;5;low;low;s;0.7861242173239589
M39;Xh;male;23;height;9;6;high;high;k;1.0071352190570906
M39;Xh;male;23;height;9;7;high;high;k;0.8714034268632531
M39;Xh;male;23;height;9;8;high;low;k;0.9500053091906011
M39;Xh;male;23;height;9;9;high;low;k;0.7221894811373204
M39;Xh;male;23;height;9;10;low;high;s;0.7732156129786745
M39;Xh;male;23;height;9;11;high;high;k;0.7136486129602417
M39;Xh;male;23;height;9;12;high;high;k;0.654599899193272
M39;Xh;male;23;height;9;13;high;low;k;0.6980218674289063
M39;Xh;male;23;height;9;14;low;low;s;0.7362771573243663
M39;Xh;male;23;height;9;15;low;high;s;0.6437553609721363
M39;Xh;male;23;height;9;16;low;low;s;0.8004364973166957
M39;Xh;male;23;height;10;1;low;low;s;1.1501076243584976
M39;Xh;male;23;height;10;2;high;low;k;0.6427101042354479
M39;Xh;male;23;height;10;3;high;low;k;0.7201546253636479
M39;Xh;male;23;height;10;4;high;high;k;0.6205805042991415
M39;Xh;male;23;height;10;5;low;high;s;0.6894774467218667
M39;Xh;male;23;height;10;6;high;high;k;0.6927790051558986
M39;Xh;male;23;height;10;7;low;low;s;0.6060637519694865
M39;Xh;male;23;height;10;8;low;high;s;1.2258934715064242
M39;Xh;male;23;height;10;9;high;low;k;0.6959380644839257
M39;Xh;male;23;height;10;10;low;high;s;1.1932011736789718
M39;Xh;male;23;height;10;11;low;high;s;0.8012839920120314
M39;Xh;male;23;height;10;12;high;high;k;0.7842867288272828
M39;Xh;male;23;height;10;13;high;low;k;1.7023742090677842
M39;Xh;male;23;height;10;14;low;low;s;0.6293049240484834
M39;Xh;male;23;height;10;15;low;low;s;0.6313208326464519
M39;Xh;male;23;height;10;16;high;high;k;0.6368242196040228
M39;Xh;male;23;height;11;1;low;low;s;0.9729022728279233
M39;Xh;male;23;height;11;2;low;low;s;0.6358875147998333
M39;Xh;male;23;height;11;3;low;low;s;0.6829970920225605
M39;Xh;male;23;height;11;4;high;low;k;0.6533371438272297
M39;Xh;male;23;height;11;5;low;low;s;0.7977700664196163
M39;Xh;male;23;height;11;6;high;high;k;0.5965348635800183
M39;Xh;male;23;height;11;7;low;low;s;0.6523278079694137
M39;Xh;male;23;height;11;8;low;high;s;0.7134970349725336
M39;Xh;male;23;height;11;9;high;high;k;0.6633239241782576
M39;Xh;male;23;height;11;10;high;low;k;0.7789799195015803
M39;Xh;male;23;height;11;11;high;high;k;0.6488245401997119
M39;Xh;male;23;height;11;12;low;high;s;0.5926644927822053
M39;Xh;male;23;height;11;13;high;high;k;0.9296449087560177
M39;Xh;male;23;height;11;14;high;low;k;0.9832924717338756
M39;Xh;male;23;height;11;15;high;high;k;0.84115492971614
M39;Xh;male;23;height;11;16;low;high;s;0.8189065146725625
M39;Xh;male;23;size;12;1;low;small;s;0.7757174395956099
M39;Xh;male;23;size;12;2;low;big;s;0.5957347368821502
M39;Xh;male;23;size;12;3;high;big;k;0.722656057216227
M39;Xh;male;23;size;12;4;high;small;k;0.6491742747602984
M39;Xh;male;23;size;12;5;high;small;k;0.7445444745244458
M39;Xh;male;23;size;12;6;high;big;k;0.6110895103774965
M39;Xh;male;23;size;12;7;high;big;k;0.6429129978641868
M39;Xh;male;23;size;12;8;low;big;s;0.6267277031438425
M39;Xh;male;23;size;12;9;low;big;s;0.6192707755835727
M39;Xh;male;23;size;12;10;low;big;s;0.5940058002015576
M39;Xh;male;23;size;12;11;high;small;k;0.6855735233984888
M39;Xh;male;23;size;12;12;low;small;k;1.070148645201698
M39;Xh;male;23;size;12;13;high;small;k;1.4494426152668893
M39;Xh;male;23;size;12;14;low;small;s;0.8722864476731047
M39;Xh;male;23;size;12;15;low;big;s;1.1552746976958588
M39;Xh;male;23;size;12;16;high;small;k;0.8999723291490227
M39;Xh;male;23;height;13;1;low;high;s;1.0322036165744066
M39;Xh;male;23;height;13;2;high;high;k;0.7908176095224917
M39;Xh;male;23;height;13;3;low;low;s;0.7495054964674637
M39;Xh;male;23;height;13;4;low;low;s;0.6943713637301698
M39;Xh;male;23;height;13;5;low;high;s;0.6528851729817688
M39;Xh;male;23;height;13;6;low;high;s;0.6400223578093573
M39;Xh;male;23;height;13;7;low;low;s;0.7853469854453579
M39;Xh;male;23;height;13;8;high;low;k;0.6214256307575852
M39;Xh;male;23;height;13;9;high;low;k;0.617025131592527
M39;Xh;male;23;height;13;10;high;low;k;0.600524049368687
M39;Xh;male;23;height;13;11;low;low;s;0.664444575086236
M39;Xh;male;23;height;13;12;high;high;s;0.8028775348793715
M39;Xh;male;23;height;13;13;high;high;k;0.8001814988674596
M39;Xh;male;23;height;13;14;high;high;k;0.7037822266574949
M39;Xh;male;23;height;13;15;low;low;s;1.0201985593885183
M39;Xh;male;23;height;13;16;high;high;k;0.8726626295829192
M39;Xh;male;23;size;14;1;high;big;k;1.140784392482601
M39;Xh;male;23;size;14;2;low;small;s;0.6436223355121911
M39;Xh;male;23;size;14;3;low;small;s;0.7422494887141511
M39;Xh;male;23;size;14;4;high;big;k;0.6337910805596039
M39;Xh;male;23;size;14;5;low;big;s;1.1627793880179524
M39;Xh;male;23;size;14;6;low;big;s;0.788062758045271
M39;Xh;male;23;size;14;7;low;small;s;0.6584536911686882
M39;Xh;male;23;size;14;8;low;big;s;0.7073162837186828
M39;Xh;male;23;size;14;9;high;small;k;0.7333166492171586
M39;Xh;male;23;size;14;10;high;big;k;0.632180958869867
M39;Xh;male;23;size;14;11;high;small;k;0.66888217930682
M39;Xh;male;23;size;14;12;low;big;s;0.6323818786768243
M39;Xh;male;23;size;14;13;high;small;k;1.0532433548942208
M39;Xh;male;23;size;14;14;high;small;k;0.7373413612367585
M39;Xh;male;23;size;14;15;high;small;k;0.6952263584826142
M39;Xh;male;23;size;14;16;low;big;s;0.6436065461020917
M39;Xh;male;23;height;15;1;low;low;s;0.8042673947056755
M39;Xh;male;23;height;15;2;low;high;s;0.6457696906290948
M39;Xh;male;23;height;15;3;high;high;k;0.7236701298970729
M39;Xh;male;23;height;15;4;high;low;k;0.6817260473035276
M39;Xh;male;23;height;15;5;high;low;k;0.7174222739413381
M39;Xh;male;23;height;15;6;high;low;k;0.739892924320884
M39;Xh;male;23;height;15;7;high;high;k;0.6761401606490836
M39;Xh;male;23;height;15;8;low;low;s;0.7043020918499678
M39;Xh;male;23;height;15;9;high;low;k;0.6185038066469133
M39;Xh;male;23;height;15;10;high;high;k;0.7075673347571865
M39;Xh;male;23;height;15;11;low;high;s;0.6437707556178793
M39;Xh;male;23;height;15;12;low;high;s;0.6788965910673141
M39;Xh;male;23;height;15;13;low;high;s;0.6331445055548102
M39;Xh;male;23;height;15;14;high;low;k;0.7761334896786138
M39;Xh;male;23;height;15;15;low;low;s;1.561323765432462
M39;Xh;male;23;height;15;16;low;high;s;0.9126239613397047
M39;Xh;male;23;height;16;1;low;high;s;0.6290558465989307
M39;Xh;male;23;height;16;2;high;low;k;0.7643040891271085
M39;Xh;male;23;height;16;3;high;high;k;0.8162294259527698
M39;Xh;male;23;height;16;4;low;high;s;0.6520735989324749
M39;Xh;male;23;height;16;5;low;low;s;0.7355804510880262
M39;Xh;male;23;height;16;6;high;high;k;0.6197969565400854
M39;Xh;male;23;height;16;7;low;low;s;0.6653410169528797
M39;Xh;male;23;height;16;8;low;high;s;0.7848267253721133
M39;Xh;male;23;height;16;9;low;low;s;0.6809026312548667
M39;Xh;male;23;height;16;10;high;low;k;0.8357225948711857
M39;Xh;male;23;height;16;11;high;high;k;0.712631382397376
M39;Xh;male;23;height;16;12;high;low;k;0.7288340453524143
M39;Xh;male;23;height;16;13;low;low;s;0.7343184851342812
M39;Xh;male;23;height;16;14;high;high;k;0.661846433300525
M39;Xh;male;23;height;16;15;high;high;k;0.8819538878742605
M39;Xh;male;23;height;16;16;low;low;s;0.9070372853893787
M39;Xh;male;23;size;17;1;low;small;s;1.546211753739044
M39;Xh;male;23;size;17;2;high;big;k;0.6346863381331787
M39;Xh;male;23;size;17;3;high;big;k;0.6490633544744924
M39;Xh;male;23;size;17;4;high;small;k;0.6526913583511487
M39;Xh;male;23;size;17;5;low;big;s;0.759168594609946
M39;Xh;male;23;size;17;6;low;big;s;0.7431988249300048
M39;Xh;male;23;size;17;7;low;big;s;0.7214094860246405
M39;Xh;male;23;size;17;8;high;small;k;0.6458411375060678
M39;Xh;male;23;size;17;9;high;small;k;0.6797776381717995
M39;Xh;male;23;size;17;10;low;small;s;0.6370377709390596
M39;Xh;male;23;size;17;11;high;big;k;1.5257135910214856
M39;Xh;male;23;size;17;12;low;small;s;0.6365198794519529
M39;Xh;male;23;size;17;13;high;big;k;1.0930270561948419
M39;Xh;male;23;size;17;14;low;small;s;0.6646328633651137
M39;Xh;male;23;size;17;15;low;big;s;1.2505860818782821
M39;Xh;male;23;size;17;16;high;small;k;0.686006941832602
M39;Xh;male;23;height;18;1;low;high;s;0.7630330444080755
M39;Xh;male;23;height;18;2;high;low;k;0.6129005517577752
M39;Xh;male;23;height;18;3;low;high;s;0.628028352977708
M39;Xh;male;23;height;18;4;high;high;k;1.1288563084090129
M39;Xh;male;23;height;18;5;high;high;k;1.027489303611219
M39;Xh;male;23;height;18;6;low;high;s;0.71737332677003
M39;Xh;male;23;height;18;7;high;low;k;1.152429452049546
M39;Xh;male;23;height;18;8;high;low;k;0.8266898876754567
M39;Xh;male;23;height;18;9;high;high;k;0.8232916191918775
M39;Xh;male;23;height;18;10;low;low;s;0.852985514444299
M39;Xh;male;23;height;18;11;low;low;s;0.8088072350947186
M39;Xh;male;23;height;18;12;low;low;s;0.7888873581541702
M39;Xh;male;23;height;18;13;high;low;k;0.7685723522445187
M39;Xh;male;23;height;18;14;low;low;s;0.7045693269465119
M39;Xh;male;23;height;18;15;high;high;k;0.6940737339900807
M39;Xh;male;23;height;18;16;low;high;s;0.718780554831028
M39;Xh;male;23;size;19;1;low;small;s;0.8152331162709743
M39;Xh;male;23;size;19;2;low;big;s;0.6418199782492593
M39;Xh;male;23;size;19;3;high;big;k;0.6535045112250373
M39;Xh;male;23;size;19;4;high;big;k;0.6492694058688357
M39;Xh;male;23;size;19;5;high;big;k;0.648372964002192
M39;Xh;male;23;size;19;6;high;big;k;0.5990335321985185
M39;Xh;male;23;size;19;7;low;small;s;0.6544499001465738
M39;Xh;male;23;size;19;8;low;big;s;0.6220185216516256
M39;Xh;male;23;size;19;9;low;big;s;0.6508218961535022
M39;Xh;male;23;size;19;10;low;small;s;0.6531385924899951
M39;Xh;male;23;size;19;11;low;big;s;0.6470581036992371
M39;Xh;male;23;size;19;12;low;small;s;0.641014719964005
M39;Xh;male;23;size;19;13;high;small;k;0.7256161705590785
M39;Xh;male;23;size;19;14;high;small;k;0.7537212598836049
M39;Xh;male;23;size;19;15;high;small;k;0.7231719751143828
M39;Xh;male;23;size;19;16;high;small;k;0.8173169192159548
M39;Xh;male;23;size;20;1;low;small;s;0.8600788916228339
M39;Xh;male;23;size;20;2;high;big;k;0.7582224162761122
M39;Xh;male;23;size;20;3;high;big;k;0.673831753898412
M39;Xh;male;23;size;20;4;low;big;s;0.6447189076570794
M39;Xh;male;23;size;20;5;high;big;k;0.7311795571586117
M39;Xh;male;23;size;20;6;high;big;k;0.6865319386124611
M39;Xh;male;23;size;20;7;low;small;s;0.6298741310602054
M39;Xh;male;23;size;20;8;low;big;s;0.7539111271034926
M39;Xh;male;23;size;20;9;low;small;s;0.7007830345537513
M39;Xh;male;23;size;20;10;high;small;k;0.7140338736353442
M39;Xh;male;23;size;20;11;low;small;s;0.668978889239952
M39;Xh;male;23;size;20;12;low;big;s;0.7263697184389457
M39;Xh;male;23;size;20;13;high;small;k;0.6403641976648942
M39;Xh;male;23;size;20;14;high;small;k;0.7297703553922474
M39;Xh;male;23;size;20;15;high;big;k;0.6522575452690944
M39;Xh;male;23;size;20;16;low;small;s;0.6296416325494647
