participant;language;gender;age;condition;block;trial;sound;visual;key;RT
bc;da;female;58;size;1;1;low;big;k;0.8150088787078857
bc;da;female;58;size;1;2;low;small;s;1.812424898147583
bc;da;female;58;size;1;3;high;big;k;0.5473291873931885
bc;da;female;58;size;1;4;low;big;s;0.3611788749694824
bc;da;female;58;size;1;5;high;small;k;0.2645690441131592
bc;da;female;58;size;1;6;high;small;k;0.4702920913696289
bc;da;female;58;size;1;7;low;big;s;0.3810420036315918
bc;da;female;58;size;1;8;low;small;s;0.41268301010131836
bc;da;female;58;size;1;9;low;small;s;0.2750279903411865
bc;da;female;58;size;1;10;high;big;k;0.37737107276916504
bc;da;female;58;size;1;11;high;big;k;0.384476900100708
bc;da;female;58;size;1;12;high;small;k;0.29614996910095215
bc;da;female;58;size;1;13;low;small;s;0.2304539680480957
bc;da;female;58;size;1;14;high;big;k;0.24900197982788086
bc;da;female;58;size;1;15;low;small;s;0.4013240337371826
bc;da;female;58;size;1;16;high;big;k;0.2590610980987549
bc;da;female;58;size;2;1;low;big;k;0.4243030548095703
bc;da;female;58;size;2;2;low;big;k;0.3728830814361572
bc;da;female;58;size;2;3;high;small;k;0.5081429481506348
bc;da;female;58;size;2;4;high;small;k;0.33765697479248047
bc;da;female;58;size;2;5;high;big;k;0.4062349796295166
bc;da;female;58;size;2;6;high;big;k;0.4468991756439209
bc;da;female;58;size;2;7;low;big;s;0.2668931484222412
bc;da;female;58;size;2;8;low;big;s;0.39858508110046387
bc;da;female;58;size;2;9;high;small;k;0.42109084129333496
bc;da;female;58;size;2;10;high;small;k;0.3319520950317383
bc;da;female;58;size;2;11;low;small;s;0.3575308322906494
bc;da;female;58;size;2;12;high;big;k;0.45047903060913086
bc;da;female;58;size;2;13;low;big;s;0.2620279788970947
bc;da;female;58;size;2;14;low;small;s;0.36180591583251953
bc;da;female;58;size;2;15;low;small;s;0.30556297302246094
bc;da;female;58;size;2;16;high;small;k;0.3958749771118164
bc;da;female;58;size;3;1;high;big;k;0.6710309982299805
bc;da;female;58;size;3;2;low;big;s;0.3276820182800293
bc;da;female;58;size;3;3;low;small;s;0.35458898544311523
bc;da;female;58;size;3;4;low;big;s;0.25127100944519043
bc;da;female;58;size;3;5;high;big;k;0.3596041202545166
bc;da;female;58;size;3;6;high;big;k;0.35145092010498047
bc;da;female;58;size;3;7;high;small;k;0.2634720802307129
bc;da;female;58;size;3;8;low;big;s;0.30858707427978516
bc;da;female;58;size;3;9;low;small;s;0.3880891799926758
bc;da;female;58;size;3;10;high;small;k;0.33493590354919434
bc;da;female;58;size;3;11;high;big;k;0.3206899166107178
bc;da;female;58;size;3;12;low;small;s;0.4586198329925537
bc;da;female;58;size;3;13;low;big;s;0.35313987731933594
bc;da;female;58;size;3;14;high;small;k;0.27663302421569824
bc;da;female;58;size;3;15;low;small;s;0.327394962310791
bc;da;female;58;size;3;16;high;small;k;0.2700951099395752
bc;da;female;58;size;4;1;low;big;s;0.4408588409423828
bc;da;female;58;size;4;2;high;big;k;0.37241697311401367
bc;da;female;58;size;4;3;low;big;s;0.243394136428833
bc;da;female;58;size;4;4;low;small;s;0.3451387882232666
bc;da;female;58;size;4;5;high;small;k;0.36169886589050293
bc;da;female;58;size;4;6;high;small;k;0.3525528907775879
bc;da;female;58;size;4;7;high;big;k;0.2643098831176758
bc;da;female;58;size;4;8;low;small;s;0.2946319580078125
bc;da;female;58;size;4;9;high;small;s;0.34505677223205566
bc;da;female;58;size;4;10;low;big;s;0.7809760570526123
bc;da;female;58;size;4;11;low;small;s;0.5061969757080078
bc;da;female;58;size;4;12;low;big;s;0.280487060546875
bc;da;female;58;size;4;13;high;big;k;0.5432660579681396
bc;da;female;58;size;4;14;low;big;s;0.7783858776092529
bc;da;female;58;size;4;15;high;small;k;1.0523669719696045
bc;da;female;58;size;4;16;high;small;k;0.7677171230316162
bc;da;female;58;size;5;1;low;big;s;0.5257821083068848
bc;da;female;58;size;5;2;high;big;k;0.42439985275268555
bc;da;female;58;size;5;3;high;small;k;0.3566288948059082
bc;da;female;58;size;5;4;high;big;k;0.25263500213623047
bc;da;female;58;size;5;5;low;small;s;0.2780580520629883
bc;da;female;58;size;5;6;high;big;k;0.29547905921936035
bc;da;female;58;size;5;7;high;big;k;0.42830896377563477
bc;da;female;58;size;5;8;high;big;k;0.38521814346313477
bc;da;female;58;size;5;9;low;small;s;0.2208399772644043
bc;da;female;58;size;5;10;low;small;s;0.3686540126800537
bc;da;female;58;size;5;11;low;small;s;0.5331220626831055
bc;da;female;58;size;5;12;high;small;k;0.3864588737487793
bc;da;female;58;size;5;13;low;big;s;0.4526388645172119
bc;da;female;58;size;5;14;high;small;k;0.4324519634246826
bc;da;female;58;size;5;15;low;small;s;0.3130002021789551
bc;da;female;58;size;5;16;low;big;s;0.3709230422973633
bc;da;female;58;height;6;1;high;low;s;0.5649189949035645
bc;da;female;58;height;6;2;low;high;s;0.4506509304046631
bc;da;female;58;height;6;3;low;high;s;0.7731931209564209
bc;da;female;58;height;6;4;high;high;k;0.7445168495178223
bc;da;female;58;height;6;5;low;high;s;0.6516108512878418
bc;da;female;58;height;6;6;high;high;k;0.7228798866271973
bc;da;female;58;height;6;7;low;low;s;0.3377988338470459
bc;da;female;58;height;6;8;high;high;k;0.4982631206512451
bc;da;female;58;height;6;9;high;low;k;0.6435520648956299
bc;da;female;58;height;6;10;low;high;s;0.6238219738006592
bc;da;female;58;height;6;11;high;low;k;0.7295689582824707
bc;da;female;58;height;6;12;low;low;s;0.3710029125213623
bc;da;female;58;height;6;13;low;low;s;0.4018840789794922
bc;da;female;58;height;6;14;high;low;k;0.49267005920410156
bc;da;female;58;height;6;15;high;high;k;0.5600700378417969
bc;da;female;58;height;6;16;low;low;s;0.2678251266479492
bc;da;female;58;height;7;1;high;high;k;0.8140490055084229
bc;da;female;58;height;7;2;low;high;s;0.2946338653564453
bc;da;female;58;height;7;3;high;low;k;0.38440895080566406
bc;da;female;58;height;7;4;high;low;k;0.27957892417907715
bc;da;female;58;height;7;5;high;high;k;0.4666478633880615
bc;da;female;58;height;7;6;low;high;s;0.2677781581878662
bc;da;female;58;height;7;7;low;high;s;0.40695691108703613
bc;da;female;58;height;7;8;high;low;k;0.5197830200195312
bc;da;female;58;height;7;9;low;low;s;0.46364307403564453
bc;da;female;58;height;7;10;low;low;s;0.35927605628967285
bc;da;female;58;height;7;11;high;high;k;0.42098212242126465
bc;da;female;58;height;7;12;high;low;k;0.6298458576202393
bc;da;female;58;height;7;13;low;high;s;0.38555908203125
bc;da;female;58;height;7;14;high;high;k;0.5127038955688477
bc;da;female;58;height;7;15;low;low;s;0.340238094329834
bc;da;female;58;height;7;16;low;low;s;0.3644859790802002
bc;da;female;58;size;8;1;low;big;s;0.6993021965026855
bc;da;female;58;size;8;2;high;big;k;0.27010607719421387
bc;da;female;58;size;8;3;low;big;s;0.32593703269958496
bc;da;female;58;size;8;4;high;small;k;0.3714280128479004
bc;da;female;58;size;8;5;high;small;k;0.4891979694366455
bc;da;female;58;size;8;6;low;small;s;0.36524415016174316
bc;da;female;58;size;8;7;low;big;s;0.5853109359741211
bc;da;female;58;size;8;8;high;small;k;0.4141571521759033
bc;da;female;58;size;8;9;high;small;k;0.2846078872680664
bc;da;female;58;size;8;10;low;small;s;0.46600985527038574
bc;da;female;58;size;8;11;low;small;s;0.3558349609375
bc;da;female;58;size;8;12;low;big;s;0.6444449424743652
bc;da;female;58;size;8;13;low;big;s;0.5177152156829834
bc;da;female;58;size;8;14;high;big;k;0.38068699836730957
bc;da;female;58;size;8;15;high;big;k;0.44621896743774414
bc;da;female;58;size;8;16;high;small;k;0.6626980304718018
bc;da;female;58;height;9;1;high;low;k;0.5726637840270996
bc;da;female;58;height;9;2;high;high;k;0.23385405540466309
bc;da;female;58;height;9;3;low;high;s;0.40249109268188477
bc;da;female;58;height;9;4;low;low;s;0.4028928279876709
bc;da;female;58;height;9;5;high;high;k;0.4119241237640381
bc;da;female;58;height;9;6;low;high;s;0.5250661373138428
bc;da;female;58;height;9;7;high;high;k;0.3285250663757324
bc;da;female;58;height;9;8;high;low;k;0.3376750946044922
bc;da;female;58;height;9;9;low;high;s;0.3731379508972168
bc;da;female;58;height;9;10;low;high;s;0.3664438724517822
bc;da;female;58;height;9;11;high;low;k;0.46063804626464844
bc;da;female;58;height;9;12;low;low;s;0.32842588424682617
bc;da;female;58;height;9;13;low;high;s;0.4652979373931885
bc;da;female;58;height;9;14;high;low;k;0.48700404167175293
bc;da;female;58;height;9;15;low;low;s;0.3891448974609375
bc;da;female;58;height;9;16;high;low;k;0.47093701362609863
bc;da;female;58;height;10;1;low;high;s;0.652393102645874
bc;da;female;58;height;10;2;low;high;s;0.33671998977661133
bc;da;female;58;height;10;3;low;low;s;0.29205918312072754
bc;da;female;58;height;10;4;high;low;k;0.4152860641479492
bc;da;female;58;height;10;5;high;high;k;0.33267688751220703
bc;da;female;58;height;10;6;low;low;s;0.3231959342956543
bc;da;female;58;height;10;7;high;high;k;0.31130194664001465
bc;da;female;58;height;10;8;high;low;k;0.34640002250671387
bc;da;female;58;height;10;9;low;high;s;0.5058538913726807
bc;da;female;58;height;10;10;low;high;s;0.36675381660461426
bc;da;female;58;height;10;11;low;low;s;0.2994859218597412
bc;da;female;58;height;10;12;high;low;k;0.4073488712310791
bc;da;female;58;height;10;13;high;low;k;0.338594913482666
bc;da;female;58;height;10;14;high;high;k;0.33513498306274414
bc;da;female;58;height;10;15;high;high;k;0.4584779739379883
bc;da;female;58;height;10;16;low;low;s;0.2896461486816406
bc;da;female;58;height;11;1;low;high;s;0.7184450626373291
bc;da;female;58;height;11;2;high;low;k;0.3707699775695801
bc;da;female;58;height;11;3;low;low;s;0.3257601261138916
bc;da;female;58;height;11;4;high;low;k;0.47827982902526855
bc;da;female;58;height;11;5;low;high;s;0.9695878028869629
bc;da;female;58;height;11;6;high;high;k;0.4656538963317871
bc;da;female;58;height;11;7;high;low;k;0.3239750862121582
bc;da;female;58;height;11;8;low;low;s;0.4004368782043457
bc;da;female;58;height;11;9;low;low;s;0.43311500549316406
bc;da;female;58;height;11;10;high;high;k;0.4617619514465332
bc;da;female;58;height;11;11;high;high;k;0.7666990756988525
bc;da;female;58;height;11;12;high;high;k;0.6667511463165283
bc;da;female;58;height;11;13;low;high;s;1.3617658615112305
bc;da;female;58;height;11;14;low;low;s;0.39079999923706055
bc;da;female;58;height;11;15;low;high;s;0.3250610828399658
bc;da;female;58;height;11;16;high;low;k;0.5042531490325928
bc;da;female;58;size;12;1;low;big;s;0.43372607231140137
bc;da;female;58;size;12;2;high;big;k;0.5483169555664062
bc;da;female;58;size;12;3;low;big;s;0.7055270671844482
bc;da;female;58;size;12;4;high;small;k;0.5586748123168945
bc;da;female;58;size;12;5;high;small;k;0.6142840385437012
bc;da;female;58;size;12;6;low;small;s;0.3997609615325928
bc;da;female;58;size;12;7;high;small;k;0.28682398796081543
bc;da;female;58;size;12;8;high;big;k;0.45826101303100586
bc;da;female;58;size;12;9;low;big;s;0.6068539619445801
bc;da;female;58;size;12;10;low;big;s;0.4757411479949951
bc;da;female;58;size;12;11;low;small;s;0.5842318534851074
bc;da;female;58;size;12;12;high;small;k;0.7608010768890381
bc;da;female;58;size;12;13;high;small;k;0.40462779998779297
bc;da;female;58;size;12;14;low;small;s;0.5992810726165771
bc;da;female;58;size;12;15;high;big;k;0.4288821220397949
bc;da;female;58;size;12;16;low;big;s;0.3543360233306885
bc;da;female;58;height;13;1;low;low;s;0.4205508232116699
bc;da;female;58;height;13;2;low;high;s;0.3288290500640869
bc;da;female;58;height;13;3;high;high;k;0.404130220413208
bc;da;female;58;height;13;4;low;low;s;0.3696470260620117
bc;da;female;58;height;13;5;high;high;k;0.5582292079925537
bc;da;female;58;height;13;6;low;low;s;0.37383389472961426
bc;da;female;58;height;13;7;high;low;k;0.4246091842651367
bc;da;female;58;height;13;8;low;high;k;0.3681669235229492
bc;da;female;58;height;13;9;high;low;k;0.46802520751953125
bc;da;female;58;height;13;10;high;low;s;0.3446509838104248
bc;da;female;58;height;13;11;high;low;k;0.5427041053771973
bc;da;female;58;height;13;12;high;high;k;0.4991769790649414
bc;da;female;58;height;13;13;low;high;s;0.43518495559692383
bc;da;female;58;height;13;14;high;high;k;0.47606515884399414
bc;da;female;58;height;13;15;low;low;s;0.45229196548461914
bc;da;female;58;height;13;16;low;high;s;0.41591811180114746
bc;da;female;58;size;14;1;high;big;k;0.9004578590393066
bc;da;female;58;size;14;2;high;small;k;0.32245302200317383
bc;da;female;58;size;14;3;low;big;s;0.41698479652404785
bc;da;female;58;size;14;4;high;small;k;0.28043484687805176
bc;da;female;58;size;14;5;high;big;k;0.3558521270751953
bc;da;female;58;size;14;6;low;small;s;0.3430202007293701
bc;da;female;58;size;14;7;low;big;s;0.38199615478515625
bc;da;female;58;size;14;8;low;big;s;0.2760958671569824
bc;da;female;58;size;14;9;low;big;s;0.3200109004974365
bc;da;female;58;size;14;10;high;big;k;0.39881300926208496
bc;da;female;58;size;14;11;high;small;k;0.32630205154418945
bc;da;female;58;size;14;12;high;small;k;0.35514116287231445
bc;da;female;58;size;14;13;high;small;k;0.332639217376709
bc;da;female;58;size;14;14;low;small;s;0.3302900791168213
bc;da;female;58;size;14;15;low;big;s;0.47042202949523926
bc;da;female;58;size;14;16;low;small;s;0.365142822265625
bc;da;female;58;size;15;1;high;big;k;0.8758339881896973
bc;da;female;58;size;15;2;high;small;k;0.44779491424560547
bc;da;female;58;size;15;3;low;big;s;0.3316841125488281
bc;da;female;58;size;15;4;low;small;s;0.41710495948791504
bc;da;female;58;size;15;5;high;small;k;0.3484649658203125
bc;da;female;58;size;15;6;high;small;k;0.3213510513305664
bc;da;female;58;size;15;7;high;big;k;0.5353279113769531
bc;da;female;58;size;15;8;low;small;s;0.36777400970458984
bc;da;female;58;size;15;9;high;big;k;0.22117400169372559
bc;da;female;58;size;15;10;low;big;s;0.4741020202636719
bc;da;female;58;size;15;11;high;small;k;0.255450963973999
bc;da;female;58;size;15;12;low;big;s;0.3271210193634033
bc;da;female;58;size;15;13;high;big;k;0.2690920829772949
bc;da;female;58;size;15;14;low;big;s;0.3993370532989502
bc;da;female;58;size;15;15;low;small;s;0.4272339344024658
bc;da;female;58;size;15;16;low;small;s;0.33257222175598145
bc;da;female;58;size;16;1;low;small;s;0.42265987396240234
bc;da;female;58;size;16;2;high;small;k;0.34326982498168945
bc;da;female;58;size;16;3;low;big;s;0.24973607063293457
bc;da;female;58;size;16;4;high;big;k;0.31208300590515137
bc;da;female;58;size;16;5;low;small;s;0.2936520576477051
bc;da;female;58;size;16;6;high;big;k;0.3566157817840576
bc;da;female;58;size;16;7;high;big;s;0.23771405220031738
bc;da;female;58;size;16;8;high;small;k;0.927717924118042
bc;da;female;58;size;16;9;high;big;k;0.4168119430541992
bc;da;female;58;size;16;10;low;small;s;0.3585538864135742
bc;da;female;58;size;16;11;low;big;s;0.3587801456451416
bc;da;female;58;size;16;12;low;small;s;0.2665441036224365
bc;da;female;58;size;16;13;low;big;s;0.499082088470459
bc;da;female;58;size;16;14;low;small;s;0.5398159027099609
bc;da;female;58;size;16;15;high;small;k;0.5483551025390625
bc;da;female;58;size;16;16;high;big;k;0.551069974899292
bc;da;female;58;height;17;1;low;high;s;0.6940939426422119
bc;da;female;58;height;17;2;high;low;k;0.3607900142669678
bc;da;female;58;height;17;3;low;low;s;0.29383420944213867
bc;da;female;58;height;17;4;low;high;s;0.3659791946411133
bc;da;female;58;height;17;5;low;low;s;0.23673701286315918
bc;da;female;58;height;17;6;low;low;s;0.2404170036315918
bc;da;female;58;height;17;7;high;low;k;0.3690190315246582
bc;da;female;58;height;17;8;high;low;k;0.31432580947875977
bc;da;female;58;height;17;9;low;low;s;0.3099818229675293
bc;da;female;58;height;17;10;high;high;k;0.37798213958740234
bc;da;female;58;height;17;11;low;high;s;0.47570204734802246
bc;da;female;58;height;17;12;high;low;k;0.4398379325866699
bc;da;female;58;height;17;13;low;high;s;0.5695371627807617
bc;da;female;58;height;17;14;high;high;k;0.41809606552124023
bc;da;female;58;height;17;15;high;high;k;0.35485100746154785
bc;da;female;58;height;17;16;high;high;k;0.2969808578491211
bc;da;female;58;height;18;1;low;high;s;0.6876649856567383
bc;da;female;58;height;18;2;low;high;s;0.312086820602417
bc;da;female;58;height;18;3;high;high;k;0.35127806663513184
bc;da;female;58;height;18;4;high;low;k;0.509814977645874
bc;da;female;58;height;18;5;high;low;k;0.26547789573669434
bc;da;female;58;height;18;6;high;low;k;0.32426905632019043
bc;da;female;58;height;18;7;low;low;s;0.44344401359558105
bc;da;female;58;height;18;8;low;high;s;0.447498083114624
bc;da;female;58;height;18;9;low;low;s;0.3296999931335449
bc;da;female;58;height;18;10;low;high;s;0.4911050796508789
bc;da;female;58;height;18;11;high;high;k;0.2427051067352295
bc;da;female;58;height;18;12;high;low;k;0.3572390079498291
bc;da;female;58;height;18;13;low;high;s;0.43304896354675293
bc;da;female;58;height;18;14;high;low;k;0.2251567840576172
bc;da;female;58;height;18;15;low;low;s;0.37224793434143066
bc;da;female;58;height;18;16;high;high;k;0.2900409698486328
bc;da;female;58;height;19;1;high;low;k;0.35522007942199707
bc;da;female;58;height;19;2;high;low;k;0.30836009979248047
bc;da;female;58;height;19;3;high;low;k;0.4825630187988281
bc;da;female;58;height;19;4;high;low;k;0.34163904190063477
bc;da;female;58;height;19;5;low;high;s;0.40837597846984863
bc;da;female;58;height;19;6;high;low;k;0.4751870632171631
bc;da;female;58;height;19;7;low;high;s;0.421673059463501
bc;da;female;58;height;19;8;high;low;k;0.3751699924468994
bc;da;female;58;height;19;9;low;high;s;0.3360879421234131
bc;da;female;58;height;19;10;high;high;k;0.2992219924926758
bc;da;female;58;height;19;11;low;low;s;0.269927978515625
bc;da;female;58;height;19;12;low;low;s;0.44956111907958984
bc;da;female;58;height;19;13;low;high;s;0.3140439987182617
bc;da;female;58;height;19;14;high;high;k;0.34885191917419434
bc;da;female;58;height;19;15;low;high;s;0.3475840091705322
bc;da;female;58;height;19;16;low;high;s;0.39568400382995605
bc;da;female;58;height;20;1;low;low;s;0.3640170097351074
bc;da;female;58;height;20;2;low;high;s;0.3215920925140381
bc;da;female;58;height;20;3;high;high;k;0.33614110946655273
bc;da;female;58;height;20;4;high;low;k;0.46239495277404785
bc;da;female;58;height;20;5;high;high;k;0.29801106452941895
bc;da;female;58;height;20;6;high;low;k;0.3507039546966553
bc;da;female;58;height;20;7;low;low;s;0.324321985244751
bc;da;female;58;height;20;8;low;high;k;0.35260701179504395
bc;da;female;58;height;20;9;low;low;s;0.4944479465484619
bc;da;female;58;height;20;10;high;low;k;0.40407681465148926
bc;da;female;58;height;20;11;high;low;k;0.2594130039215088
bc;da;female;58;height;20;12;low;high;s;0.3915879726409912
bc;da;female;58;height;20;13;low;low;s;0.3701300621032715
bc;da;female;58;height;20;14;high;high;k;0.3976130485534668
bc;da;female;58;height;20;15;high;high;k;0.34618091583251953
bc;da;female;58;height;20;16;low;high;s;0.3413240909576416
