participant;language;gender;age;condition;block;trial;sound;visual;key;RT
gs;gr;male;28;size;1;1;low;big;s;2.2202389240264893
gs;gr;male;28;size;1;2;low;small;s;0.5440330505371094
gs;gr;male;28;size;1;3;low;big;s;0.4874889850616455
gs;gr;male;28;size;1;4;low;big;s;0.5531618595123291
gs;gr;male;28;size;1;5;high;small;k;0.46030402183532715
gs;gr;male;28;size;1;6;high;small;k;0.43081092834472656
gs;gr;male;28;size;1;7;high;small;k;0.7633068561553955
gs;gr;male;28;size;1;8;low;big;s;0.4100661277770996
gs;gr;male;28;size;1;9;low;small;s;0.4017670154571533
gs;gr;male;28;size;1;10;high;big;k;0.31313300132751465
gs;gr;male;28;size;1;11;high;small;k;0.46042490005493164
gs;gr;male;28;size;1;12;high;small;k;0.43612194061279297
gs;gr;male;28;size;1;13;high;big;k;0.35488104820251465
gs;gr;male;28;size;1;14;low;big;s;0.35455799102783203
gs;gr;male;28;size;1;15;high;big;k;0.5289261341094971
gs;gr;male;28;size;1;16;low;small;s;0.5467262268066406
gs;gr;male;28;size;2;1;high;big;k;0.6968858242034912
gs;gr;male;28;size;2;2;low;big;s;0.535336971282959
gs;gr;male;28;size;2;3;high;small;k;0.5075058937072754
gs;gr;male;28;size;2;4;low;small;s;0.6682469844818115
gs;gr;male;28;size;2;5;high;small;k;0.5358610153198242
gs;gr;male;28;size;2;6;high;big;k;0.5192809104919434
gs;gr;male;28;size;2;7;high;big;k;0.36106300354003906
gs;gr;male;28;size;2;8;high;small;k;0.3963308334350586
gs;gr;male;28;size;2;9;low;small;s;0.3567678928375244
gs;gr;male;28;size;2;10;high;big;k;0.49164390563964844
gs;gr;male;28;size;2;11;high;small;k;0.5201830863952637
gs;gr;male;28;size;2;12;low;small;s;0.4067709445953369
gs;gr;male;28;size;2;13;low;big;s;0.3915400505065918
gs;gr;male;28;size;2;14;low;small;s;0.5023090839385986
gs;gr;male;28;size;2;15;low;big;s;0.3600940704345703
gs;gr;male;28;size;2;16;low;big;s;0.4189469814300537
gs;gr;male;28;height;3;1;low;low;s;0.867260217666626
gs;gr;male;28;height;3;2;low;low;s;0.3361179828643799
gs;gr;male;28;height;3;3;high;low;k;0.8135321140289307
gs;gr;male;28;height;3;4;high;high;k;0.39061903953552246
gs;gr;male;28;height;3;5;low;high;s;0.35933899879455566
gs;gr;male;28;height;3;6;high;low;k;0.4826700687408447
gs;gr;male;28;height;3;7;high;low;k;0.37627100944519043
gs;gr;male;28;height;3;8;low;high;s;0.36357998847961426
gs;gr;male;28;height;3;9;high;high;k;0.5366590023040771
gs;gr;male;28;height;3;10;low;high;s;0.45714902877807617
gs;gr;male;28;height;3;11;low;high;s;1.4002928733825684
gs;gr;male;28;height;3;12;high;low;k;0.8720369338989258
gs;gr;male;28;height;3;13;high;high;k;1.1839962005615234
gs;gr;male;28;height;3;14;low;low;s;0.7801380157470703
gs;gr;male;28;height;3;15;low;low;s;0.5259442329406738
gs;gr;male;28;height;3;16;high;high;k;0.8642950057983398
gs;gr;male;28;size;4;1;high;small;k;0.5134670734405518
gs;gr;male;28;size;4;2;high;small;k;0.36827898025512695
gs;gr;male;28;size;4;3;low;small;s;0.593602180480957
gs;gr;male;28;size;4;4;low;big;s;0.398205041885376
gs;gr;male;28;size;4;5;low;big;s;0.5094239711761475
gs;gr;male;28;size;4;6;high;big;k;0.4733710289001465
gs;gr;male;28;size;4;7;high;small;k;0.38723206520080566
gs;gr;male;28;size;4;8;low;big;s;0.725477933883667
gs;gr;male;28;size;4;9;high;small;k;0.7498209476470947
gs;gr;male;28;size;4;10;low;big;s;0.5471761226654053
gs;gr;male;28;size;4;11;low;small;s;0.4221608638763428
gs;gr;male;28;size;4;12;low;small;s;0.3286898136138916
gs;gr;male;28;size;4;13;high;big;k;0.5022799968719482
gs;gr;male;28;size;4;14;low;big;s;0.7993528842926025
gs;gr;male;28;size;4;15;high;big;k;0.8538239002227783
gs;gr;male;28;size;4;16;high;small;k;1.019996166229248
gs;gr;male;28;height;5;1;high;low;k;0.4843330383300781
gs;gr;male;28;height;5;2;low;low;s;0.5351011753082275
gs;gr;male;28;height;5;3;high;low;k;0.4792749881744385
gs;gr;male;28;height;5;4;high;low;k;0.4619290828704834
gs;gr;male;28;height;5;5;high;high;k;0.32213497161865234
gs;gr;male;28;height;5;6;high;high;k;0.3717360496520996
gs;gr;male;28;height;5;7;low;high;s;0.44783806800842285
gs;gr;male;28;height;5;8;low;high;s;0.39406704902648926
gs;gr;male;28;height;5;9;low;low;s;0.3688511848449707
gs;gr;male;28;height;5;10;low;high;s;0.3800811767578125
gs;gr;male;28;height;5;11;high;high;k;0.4563891887664795
gs;gr;male;28;height;5;12;low;low;s;0.7291409969329834
gs;gr;male;28;height;5;13;high;low;k;0.726747989654541
gs;gr;male;28;height;5;14;low;low;s;1.0305709838867188
gs;gr;male;28;height;5;15;low;high;s;0.5962841510772705
gs;gr;male;28;height;5;16;high;high;k;0.4848041534423828
gs;gr;male;28;height;6;1;high;high;k;0.3923459053039551
gs;gr;male;28;height;6;2;low;high;s;0.5158820152282715
gs;gr;male;28;height;6;3;high;high;k;0.43757104873657227
gs;gr;male;28;height;6;4;high;high;k;0.37857699394226074
gs;gr;male;28;height;6;5;low;low;s;0.47568702697753906
gs;gr;male;28;height;6;6;low;low;s;0.5045349597930908
gs;gr;male;28;height;6;7;low;low;s;0.47461390495300293
gs;gr;male;28;height;6;8;high;high;k;0.5912899971008301
gs;gr;male;28;height;6;9;high;low;k;1.041126012802124
gs;gr;male;28;height;6;10;low;low;s;0.5504810810089111
gs;gr;male;28;height;6;11;low;low;s;0.5373799800872803
gs;gr;male;28;height;6;12;high;high;k;0.5984199047088623
gs;gr;male;28;height;6;13;high;low;k;0.5139918327331543
gs;gr;male;28;height;6;14;low;high;s;0.4453268051147461
gs;gr;male;28;height;6;15;high;high;k;0.7327220439910889
gs;gr;male;28;height;6;16;low;low;s;1.063115119934082
gs;gr;male;28;height;7;1;high;high;k;1.3516521453857422
gs;gr;male;28;height;7;2;high;low;k;0.6104199886322021
gs;gr;male;28;height;7;3;high;high;k;0.45311689376831055
gs;gr;male;28;height;7;4;low;low;s;0.5084719657897949
gs;gr;male;28;height;7;5;high;low;k;0.5262939929962158
gs;gr;male;28;height;7;6;low;high;s;0.7691988945007324
gs;gr;male;28;height;7;7;high;low;k;0.6190648078918457
gs;gr;male;28;height;7;8;high;high;k;0.4229769706726074
gs;gr;male;28;height;7;9;low;low;k;0.579373836517334
gs;gr;male;28;height;7;10;low;low;k;0.4795210361480713
gs;gr;male;28;height;7;11;low;high;k;0.3967149257659912
gs;gr;male;28;height;7;12;low;low;k;0.4785029888153076
gs;gr;male;28;height;7;13;low;high;s;0.7744698524475098
gs;gr;male;28;height;7;14;high;high;k;1.2642669677734375
gs;gr;male;28;height;7;15;low;low;s;0.4012730121612549
gs;gr;male;28;height;7;16;high;high;k;1.218080997467041
gs;gr;male;28;height;8;1;low;low;s;0.5423898696899414
gs;gr;male;28;height;8;2;high;low;k;0.7443821430206299
gs;gr;male;28;height;8;3;high;high;k;0.5503520965576172
gs;gr;male;28;height;8;4;high;high;k;0.6309781074523926
gs;gr;male;28;height;8;5;high;low;k;0.702826976776123
gs;gr;male;28;height;8;6;high;high;k;0.7351338863372803
gs;gr;male;28;height;8;7;low;low;s;0.45002198219299316
gs;gr;male;28;height;8;8;low;low;s;0.4782078266143799
gs;gr;male;28;height;8;9;low;low;s;0.5742130279541016
gs;gr;male;28;height;8;10;low;high;s;0.44924402236938477
gs;gr;male;28;height;8;11;high;high;k;0.4363088607788086
gs;gr;male;28;height;8;12;low;low;s;0.644568920135498
gs;gr;male;28;height;8;13;low;high;s;0.44721412658691406
gs;gr;male;28;height;8;14;low;low;s;0.4004480838775635
gs;gr;male;28;height;8;15;high;high;k;0.41596412658691406
gs;gr;male;28;height;8;16;high;high;k;0.42810487747192383
gs;gr;male;28;size;9;1;high;small;k;0.6218581199645996
gs;gr;male;28;size;9;2;low;small;s;0.533088207244873
gs;gr;male;28;size;9;3;high;big;k;0.39165306091308594
gs;gr;male;28;size;9;4;high;big;k;0.6707298755645752
gs;gr;male;28;size;9;5;low;big;s;0.3776559829711914
gs;gr;male;28;size;9;6;low;small;s;0.4353032112121582
gs;gr;male;28;size;9;7;high;big;k;0.4157090187072754
gs;gr;male;28;size;9;8;high;small;k;0.4647238254547119
gs;gr;male;28;size;9;9;low;big;s;0.26835107803344727
gs;gr;male;28;size;9;10;low;small;s;0.43360400199890137
gs;gr;male;28;size;9;11;low;small;s;0.43779611587524414
gs;gr;male;28;size;9;12;low;big;s;0.34943294525146484
gs;gr;male;28;size;9;13;high;big;k;0.3745460510253906
gs;gr;male;28;size;9;14;high;big;k;0.4908571243286133
gs;gr;male;28;size;9;15;high;small;k;0.4494199752807617
gs;gr;male;28;size;9;16;low;small;s;0.37583088874816895
gs;gr;male;28;size;10;1;high;big;k;0.4930710792541504
gs;gr;male;28;size;10;2;low;big;s;0.644881010055542
gs;gr;male;28;size;10;3;low;small;s;0.3979930877685547
gs;gr;male;28;size;10;4;low;big;s;0.43801188468933105
gs;gr;male;28;size;10;5;high;big;k;0.360382080078125
gs;gr;male;28;size;10;6;high;big;k;0.44634389877319336
gs;gr;male;28;size;10;7;high;small;k;0.48320889472961426
gs;gr;male;28;size;10;8;high;small;k;0.4486970901489258
gs;gr;male;28;size;10;9;low;big;s;0.3929269313812256
gs;gr;male;28;size;10;10;low;big;s;0.5685529708862305
gs;gr;male;28;size;10;11;high;small;k;0.4157888889312744
gs;gr;male;28;size;10;12;high;small;k;0.4128909111022949
gs;gr;male;28;size;10;13;low;small;s;0.3869600296020508
gs;gr;male;28;size;10;14;high;small;k;0.7666928768157959
gs;gr;male;28;size;10;15;low;small;s;0.6206421852111816
gs;gr;male;28;size;10;16;low;big;s;0.4661397933959961
gs;gr;male;28;size;11;1;low;big;s;0.6581330299377441
gs;gr;male;28;size;11;2;low;small;s;0.42163801193237305
gs;gr;male;28;size;11;3;high;big;k;0.7427730560302734
gs;gr;male;28;size;11;4;high;big;s;0.270557165145874
gs;gr;male;28;size;11;5;low;big;s;0.7951948642730713
gs;gr;male;28;size;11;6;high;small;k;0.7293679714202881
gs;gr;male;28;size;11;7;high;big;k;1.1453471183776855
gs;gr;male;28;size;11;8;high;small;k;0.9392390251159668
gs;gr;male;28;size;11;9;high;small;k;1.1070168018341064
gs;gr;male;28;size;11;10;low;small;s;0.4641718864440918
gs;gr;male;28;size;11;11;low;small;s;0.5990021228790283
gs;gr;male;28;size;11;12;high;big;k;0.33681321144104004
gs;gr;male;28;size;11;13;low;small;s;0.44802308082580566
gs;gr;male;28;size;11;14;low;big;s;0.6320929527282715
gs;gr;male;28;size;11;15;high;big;k;0.43830299377441406
gs;gr;male;28;size;11;16;low;small;s;0.4386870861053467
gs;gr;male;28;height;12;1;high;high;k;0.5434041023254395
gs;gr;male;28;height;12;2;low;low;s;1.120473861694336
gs;gr;male;28;height;12;3;low;low;s;0.3845529556274414
gs;gr;male;28;height;12;4;low;high;s;0.7012851238250732
gs;gr;male;28;height;12;5;high;low;k;0.3060169219970703
gs;gr;male;28;height;12;6;high;high;k;0.4255239963531494
gs;gr;male;28;height;12;7;low;high;s;0.9713518619537354
gs;gr;male;28;height;12;8;high;low;k;0.46560001373291016
gs;gr;male;28;height;12;9;low;high;s;0.47851109504699707
gs;gr;male;28;height;12;10;low;low;s;0.40471410751342773
gs;gr;male;28;height;12;11;high;low;k;1.220207929611206
gs;gr;male;28;height;12;12;low;low;s;0.7826409339904785
gs;gr;male;28;height;12;13;high;low;k;0.5833780765533447
gs;gr;male;28;height;12;14;high;high;k;0.48650097846984863
gs;gr;male;28;height;12;15;high;high;k;0.4325549602508545
gs;gr;male;28;height;12;16;low;high;s;1.049180030822754
gs;gr;male;28;size;13;1;high;big;k;1.094641923904419
gs;gr;male;28;size;13;2;high;small;k;0.459716796875
gs;gr;male;28;size;13;3;low;big;s;0.35373997688293457
gs;gr;male;28;size;13;4;high;big;s;0.3715689182281494
gs;gr;male;28;size;13;5;low;small;s;0.6669440269470215
gs;gr;male;28;size;13;6;low;small;s;0.4646430015563965
gs;gr;male;28;size;13;7;high;small;k;0.44676995277404785
gs;gr;male;28;size;13;8;high;big;k;0.8758668899536133
gs;gr;male;28;size;13;9;low;small;s;1.1846771240234375
gs;gr;male;28;size;13;10;high;big;k;0.7513399124145508
gs;gr;male;28;size;13;11;low;small;s;0.6012558937072754
gs;gr;male;28;size;13;12;low;big;s;0.4482898712158203
gs;gr;male;28;size;13;13;low;small;s;0.4398951530456543
gs;gr;male;28;size;13;14;low;small;s;0.3136579990386963
gs;gr;male;28;size;13;15;high;big;k;0.8748879432678223
gs;gr;male;28;size;13;16;high;big;k;0.5153088569641113
gs;gr;male;28;size;14;1;high;small;k;0.9410049915313721
gs;gr;male;28;size;14;2;low;big;s;0.5764880180358887
gs;gr;male;28;size;14;3;high;small;k;0.4914729595184326
gs;gr;male;28;size;14;4;high;small;k;0.5438499450683594
gs;gr;male;28;size;14;5;high;big;k;0.349945068359375
gs;gr;male;28;size;14;6;low;small;s;0.8565797805786133
gs;gr;male;28;size;14;7;low;small;s;0.4491138458251953
gs;gr;male;28;size;14;8;low;big;s;0.5127358436584473
gs;gr;male;28;size;14;9;low;small;s;0.6789488792419434
gs;gr;male;28;size;14;10;low;big;s;0.6217851638793945
gs;gr;male;28;size;14;11;high;small;k;0.34258008003234863
gs;gr;male;28;size;14;12;high;big;k;0.9945931434631348
gs;gr;male;28;size;14;13;low;big;s;0.3616929054260254
gs;gr;male;28;size;14;14;low;big;s;0.4504518508911133
gs;gr;male;28;size;14;15;high;small;k;0.5427320003509521
gs;gr;male;28;size;14;16;high;big;k;0.4801161289215088
gs;gr;male;28;size;15;1;low;small;s;1.5790009498596191
gs;gr;male;28;size;15;2;low;big;s;0.7015650272369385
gs;gr;male;28;size;15;3;high;big;k;0.40097999572753906
gs;gr;male;28;size;15;4;high;big;k;0.5774970054626465
gs;gr;male;28;size;15;5;low;small;s;0.8470559120178223
gs;gr;male;28;size;15;6;low;big;s;0.5216829776763916
gs;gr;male;28;size;15;7;high;small;k;0.9047989845275879
gs;gr;male;28;size;15;8;low;big;s;0.5715169906616211
gs;gr;male;28;size;15;9;high;big;k;0.9146921634674072
gs;gr;male;28;size;15;10;high;small;k;0.5405089855194092
gs;gr;male;28;size;15;11;high;small;k;0.7213630676269531
gs;gr;male;28;size;15;12;high;big;k;0.6817519664764404
gs;gr;male;28;size;15;13;low;small;s;0.5764379501342773
gs;gr;male;28;size;15;14;low;small;s;0.6795859336853027
gs;gr;male;28;size;15;15;low;small;s;1.0353989601135254
gs;gr;male;28;size;15;16;high;big;k;0.7299389839172363
gs;gr;male;28;height;16;1;high;high;k;0.5875148773193359
gs;gr;male;28;height;16;2;low;high;s;0.5155961513519287
gs;gr;male;28;height;16;3;low;low;s;0.5254721641540527
gs;gr;male;28;height;16;4;low;low;s;0.37268710136413574
gs;gr;male;28;height;16;5;high;high;k;0.48505711555480957
gs;gr;male;28;height;16;6;low;high;s;0.4943811893463135
gs;gr;male;28;height;16;7;high;low;k;0.4933910369873047
gs;gr;male;28;height;16;8;high;low;k;0.5177149772644043
gs;gr;male;28;height;16;9;high;high;k;0.45198702812194824
gs;gr;male;28;height;16;10;high;low;k;0.5284609794616699
gs;gr;male;28;height;16;11;high;low;k;0.536674976348877
gs;gr;male;28;height;16;12;low;high;s;0.46904993057250977
gs;gr;male;28;height;16;13;low;high;s;0.4764869213104248
gs;gr;male;28;height;16;14;low;low;s;0.342548131942749
gs;gr;male;28;height;16;15;high;low;k;1.1570398807525635
gs;gr;male;28;height;16;16;low;high;s;0.5761539936065674
gs;gr;male;28;height;17;1;low;low;s;0.4293830394744873
gs;gr;male;28;height;17;2;high;high;k;0.5192141532897949
gs;gr;male;28;height;17;3;low;low;s;0.28808116912841797
gs;gr;male;28;height;17;4;high;low;k;0.4601318836212158
gs;gr;male;28;height;17;5;high;low;k;0.5010530948638916
gs;gr;male;28;height;17;6;high;high;k;0.43453216552734375
gs;gr;male;28;height;17;7;low;low;s;0.38984012603759766
gs;gr;male;28;height;17;8;high;high;k;0.4817681312561035
gs;gr;male;28;height;17;9;high;low;s;0.2682058811187744
gs;gr;male;28;height;17;10;high;high;k;1.6501619815826416
gs;gr;male;28;height;17;11;low;high;s;1.1729109287261963
gs;gr;male;28;height;17;12;low;high;s;0.7339110374450684
gs;gr;male;28;height;17;13;low;low;s;0.4223048686981201
gs;gr;male;28;height;17;14;high;high;k;0.4190640449523926
gs;gr;male;28;height;17;15;low;high;s;0.6677911281585693
gs;gr;male;28;height;17;16;low;low;s;0.6114370822906494
gs;gr;male;28;height;18;1;low;low;s;0.9078810214996338
gs;gr;male;28;height;18;2;low;low;s;0.6017050743103027
gs;gr;male;28;height;18;3;high;high;k;0.5384731292724609
gs;gr;male;28;height;18;4;high;low;k;0.5200710296630859
gs;gr;male;28;height;18;5;low;low;s;0.7784340381622314
gs;gr;male;28;height;18;6;high;high;k;0.5650300979614258
gs;gr;male;28;height;18;7;low;high;s;0.5704710483551025
gs;gr;male;28;height;18;8;low;low;s;0.6748700141906738
gs;gr;male;28;height;18;9;high;high;k;1.6719491481781006
gs;gr;male;28;height;18;10;high;low;k;0.8424928188323975
gs;gr;male;28;height;18;11;low;high;s;0.5445868968963623
gs;gr;male;28;height;18;12;high;high;k;0.8894062042236328
gs;gr;male;28;height;18;13;low;high;s;0.6115729808807373
gs;gr;male;28;height;18;14;high;high;k;1.0661959648132324
gs;gr;male;28;height;18;15;high;low;k;0.8073940277099609
gs;gr;male;28;height;18;16;low;low;s;0.6953279972076416
gs;gr;male;28;height;19;1;low;high;s;0.5375559329986572
gs;gr;male;28;height;19;2;low;low;s;0.3791229724884033
gs;gr;male;28;height;19;3;low;low;s;0.3307018280029297
gs;gr;male;28;height;19;4;low;low;s;0.3487379550933838
gs;gr;male;28;height;19;5;high;high;k;0.3157670497894287
gs;gr;male;28;height;19;6;high;high;k;0.43738889694213867
gs;gr;male;28;height;19;7;high;high;k;0.6700329780578613
gs;gr;male;28;height;19;8;low;low;s;0.4759659767150879
gs;gr;male;28;height;19;9;low;low;s;0.4268510341644287
gs;gr;male;28;height;19;10;high;low;k;0.46880578994750977
gs;gr;male;28;height;19;11;high;high;k;0.3905658721923828
gs;gr;male;28;height;19;12;high;high;k;0.4577150344848633
gs;gr;male;28;height;19;13;high;low;k;0.49433207511901855
gs;gr;male;28;height;19;14;low;high;s;0.8160479068756104
gs;gr;male;28;height;19;15;high;high;k;0.5131618976593018
gs;gr;male;28;height;19;16;low;low;s;0.3291740417480469
gs;gr;male;28;size;20;1;high;small;k;0.8211159706115723
gs;gr;male;28;size;20;2;low;small;s;0.6675570011138916
gs;gr;male;28;size;20;3;high;big;k;1.0983459949493408
gs;gr;male;28;size;20;4;high;big;k;0.46544623374938965
gs;gr;male;28;size;20;5;low;big;s;0.5665698051452637
gs;gr;male;28;size;20;6;high;small;k;1.0450360774993896
gs;gr;male;28;size;20;7;low;big;s;0.41129422187805176
gs;gr;male;28;size;20;8;high;small;k;1.1201820373535156
gs;gr;male;28;size;20;9;low;small;s;0.5713129043579102
gs;gr;male;28;size;20;10;low;small;s;0.5516209602355957
gs;gr;male;28;size;20;11;low;big;s;0.36316609382629395
gs;gr;male;28;size;20;12;low;big;s;0.368419885635376
gs;gr;male;28;size;20;13;high;small;k;0.35868191719055176
gs;gr;male;28;size;20;14;high;big;k;0.4172060489654541
gs;gr;male;28;size;20;15;high;small;k;0.36981201171875
gs;gr;male;28;size;20;16;low;big;s;0.4585099220275879
