participant;language;gender;age;condition;block;trial;sound;visual;key;RT
pc;da;male;33;height;1;1;low;low;s;0.35405397415161133
pc;da;male;33;height;1;2;high;low;k;0.5593218803405762
pc;da;male;33;height;1;3;low;low;s;0.5261697769165039
pc;da;male;33;height;1;4;high;high;k;0.4718759059906006
pc;da;male;33;height;1;5;high;high;k;0.4241971969604492
pc;da;male;33;height;1;6;low;low;s;0.3466510772705078
pc;da;male;33;height;1;7;high;high;k;0.27385783195495605
pc;da;male;33;height;1;8;low;low;s;0.32311201095581055
pc;da;male;33;height;1;9;high;high;k;0.3224949836730957
pc;da;male;33;height;1;10;low;low;s;0.2737710475921631
pc;da;male;33;height;1;11;low;low;s;0.3638930320739746
pc;da;male;33;height;1;12;high;low;s;0.5280640125274658
pc;da;male;33;height;1;13;high;high;k;0.5287148952484131
pc;da;male;33;height;1;14;low;high;s;0.3985269069671631
pc;da;male;33;height;1;15;high;high;k;0.36313700675964355
pc;da;male;33;height;1;16;low;high;s;0.34589195251464844
pc;da;male;33;height;2;1;low;high;s;0.7983019351959229
pc;da;male;33;height;2;2;high;high;k;0.5986449718475342
pc;da;male;33;height;2;3;high;low;k;0.33421897888183594
pc;da;male;33;height;2;4;low;high;s;0.37737202644348145
pc;da;male;33;height;2;5;high;high;k;0.34606003761291504
pc;da;male;33;height;2;6;high;high;s;0.3091459274291992
pc;da;male;33;height;2;7;low;low;s;0.4203639030456543
pc;da;male;33;height;2;8;low;high;s;1.036564826965332
pc;da;male;33;height;2;9;high;high;k;0.36695098876953125
pc;da;male;33;height;2;10;low;high;k;0.599923849105835
pc;da;male;33;height;2;11;high;low;s;0.3962419033050537
pc;da;male;33;height;2;12;low;low;s;0.40671610832214355
pc;da;male;33;height;2;13;low;low;s;0.5113260746002197
pc;da;male;33;height;2;14;high;low;k;0.563586950302124
pc;da;male;33;height;2;15;high;low;k;0.5273270606994629
pc;da;male;33;height;2;16;low;low;s;0.3800029754638672
pc;da;male;33;size;3;1;low;big;s;0.6943948268890381
pc;da;male;33;size;3;2;high;big;k;0.53590989112854
pc;da;male;33;size;3;3;high;small;k;0.40278100967407227
pc;da;male;33;size;3;4;low;small;s;0.38636207580566406
pc;da;male;33;size;3;5;high;small;k;0.4004180431365967
pc;da;male;33;size;3;6;high;big;k;0.4360978603363037
pc;da;male;33;size;3;7;low;big;s;0.4379391670227051
pc;da;male;33;size;3;8;high;small;k;0.41446995735168457
pc;da;male;33;size;3;9;low;big;s;0.29871392250061035
pc;da;male;33;size;3;10;high;big;k;0.3145458698272705
pc;da;male;33;size;3;11;low;small;s;0.2991971969604492
pc;da;male;33;size;3;12;high;big;k;0.2583739757537842
pc;da;male;33;size;3;13;low;small;s;0.2930598258972168
pc;da;male;33;size;3;14;low;big;k;0.3536229133605957
pc;da;male;33;size;3;15;low;small;s;0.3631420135498047
pc;da;male;33;size;3;16;high;small;k;0.6886510848999023
pc;da;male;33;height;4;1;low;high;s;0.40020203590393066
pc;da;male;33;height;4;2;low;high;s;0.33830785751342773
pc;da;male;33;height;4;3;low;low;s;0.4625720977783203
pc;da;male;33;height;4;4;high;low;k;0.33203911781311035
pc;da;male;33;height;4;5;low;low;s;0.4647519588470459
pc;da;male;33;height;4;6;low;high;s;0.7263960838317871
pc;da;male;33;height;4;7;high;low;k;0.3105919361114502
pc;da;male;33;height;4;8;high;low;k;0.36603212356567383
pc;da;male;33;height;4;9;low;high;s;0.25863003730773926
pc;da;male;33;height;4;10;low;low;s;0.3344099521636963
pc;da;male;33;height;4;11;high;high;k;0.5145859718322754
pc;da;male;33;height;4;12;high;low;k;0.35195112228393555
pc;da;male;33;height;4;13;high;high;k;0.3423619270324707
pc;da;male;33;height;4;14;high;low;s;0.37516283988952637
pc;da;male;33;height;4;15;low;high;s;0.3725719451904297
pc;da;male;33;height;4;16;high;high;k;0.28401708602905273
pc;da;male;33;height;5;1;high;low;k;0.4016299247741699
pc;da;male;33;height;5;2;low;low;s;0.5851359367370605
pc;da;male;33;height;5;3;high;high;k;0.4485960006713867
pc;da;male;33;height;5;4;high;low;k;0.33692288398742676
pc;da;male;33;height;5;5;low;high;s;0.48459792137145996
pc;da;male;33;height;5;6;high;low;k;0.2798960208892822
pc;da;male;33;height;5;7;high;low;k;0.4667961597442627
pc;da;male;33;height;5;8;low;high;s;0.2955460548400879
pc;da;male;33;height;5;9;high;low;k;0.3184950351715088
pc;da;male;33;height;5;10;high;low;k;0.3101980686187744
pc;da;male;33;height;5;11;low;high;s;0.26174497604370117
pc;da;male;33;height;5;12;low;high;s;0.39195990562438965
pc;da;male;33;height;5;13;low;high;s;0.7666728496551514
pc;da;male;33;height;5;14;high;high;k;0.5601921081542969
pc;da;male;33;height;5;15;low;high;s;0.80837082862854
pc;da;male;33;height;5;16;low;low;s;0.5853569507598877
pc;da;male;33;size;6;1;low;big;s;0.6467969417572021
pc;da;male;33;size;6;2;high;small;k;0.3823080062866211
pc;da;male;33;size;6;3;high;small;k;0.34127211570739746
pc;da;male;33;size;6;4;low;small;s;0.3035590648651123
pc;da;male;33;size;6;5;high;big;k;0.35736799240112305
pc;da;male;33;size;6;6;high;big;k;0.32373499870300293
pc;da;male;33;size;6;7;high;small;k;0.28644514083862305
pc;da;male;33;size;6;8;low;small;s;0.27724194526672363
pc;da;male;33;size;6;9;low;big;k;0.34717392921447754
pc;da;male;33;size;6;10;low;small;s;1.5521130561828613
pc;da;male;33;size;6;11;low;big;s;0.42186689376831055
pc;da;male;33;size;6;12;high;small;k;0.36817097663879395
pc;da;male;33;size;6;13;low;big;s;0.3562610149383545
pc;da;male;33;size;6;14;high;small;k;0.3298780918121338
pc;da;male;33;size;6;15;low;big;s;0.38294196128845215
pc;da;male;33;size;6;16;high;big;s;8.501641035079956
pc;da;male;33;size;7;1;high;small;k;0.5522139072418213
pc;da;male;33;size;7;2;high;big;k;0.38979101181030273
pc;da;male;33;size;7;3;high;small;k;0.41383886337280273
pc;da;male;33;size;7;4;low;big;s;0.4120290279388428
pc;da;male;33;size;7;5;low;big;s;0.29027700424194336
pc;da;male;33;size;7;6;high;small;k;0.4193458557128906
pc;da;male;33;size;7;7;high;big;k;0.280987024307251
pc;da;male;33;size;7;8;high;big;k;0.43407702445983887
pc;da;male;33;size;7;9;low;small;s;0.3212738037109375
pc;da;male;33;size;7;10;low;big;s;0.3753020763397217
pc;da;male;33;size;7;11;high;big;k;0.32535386085510254
pc;da;male;33;size;7;12;high;small;k;0.31145596504211426
pc;da;male;33;size;7;13;low;big;s;0.2747178077697754
pc;da;male;33;size;7;14;low;small;s;0.3618960380554199
pc;da;male;33;size;7;15;low;small;s;0.36203789710998535
pc;da;male;33;size;7;16;low;small;s;0.269366979598999
pc;da;male;33;height;8;1;high;low;s;0.46942710876464844
pc;da;male;33;height;8;2;high;high;k;0.2808041572570801
pc;da;male;33;height;8;3;high;low;k;0.30681896209716797
pc;da;male;33;height;8;4;high;low;k;0.35654306411743164
pc;da;male;33;height;8;5;low;low;s;0.30817103385925293
pc;da;male;33;height;8;6;low;high;s;2.2224080562591553
pc;da;male;33;height;8;7;low;low;s;0.7170419692993164
pc;da;male;33;height;8;8;low;low;s;0.44657206535339355
pc;da;male;33;height;8;9;low;low;s;0.4948580265045166
pc;da;male;33;height;8;10;low;high;s;0.878291130065918
pc;da;male;33;height;8;11;low;low;s;0.7648928165435791
pc;da;male;33;height;8;12;low;high;s;0.4500160217285156
pc;da;male;33;height;8;13;high;high;k;0.47631216049194336
pc;da;male;33;height;8;14;high;high;k;0.3301210403442383
pc;da;male;33;height;8;15;high;high;k;0.2753739356994629
pc;da;male;33;height;8;16;high;high;k;0.41747188568115234
pc;da;male;33;size;9;1;low;small;s;0.2833878993988037
pc;da;male;33;size;9;2;low;small;s;0.24909615516662598
pc;da;male;33;size;9;3;low;big;s;0.238739013671875
pc;da;male;33;size;9;4;high;small;k;0.3204669952392578
pc;da;male;33;size;9;5;low;big;s;0.33629703521728516
pc;da;male;33;size;9;6;low;big;s;0.3557579517364502
pc;da;male;33;size;9;7;high;big;k;1.0385451316833496
pc;da;male;33;size;9;8;high;small;k;0.5365099906921387
pc;da;male;33;size;9;9;low;big;s;0.7213890552520752
pc;da;male;33;size;9;10;high;big;k;0.26697206497192383
pc;da;male;33;size;9;11;low;big;s;0.3144509792327881
pc;da;male;33;size;9;12;high;small;k;0.28984904289245605
pc;da;male;33;size;9;13;high;big;k;2.624840021133423
pc;da;male;33;size;9;14;high;small;k;1.003154993057251
pc;da;male;33;size;9;15;low;small;s;0.39353394508361816
pc;da;male;33;size;9;16;high;small;k;0.4501028060913086
pc;da;male;33;size;10;1;high;big;k;0.35271787643432617
pc;da;male;33;size;10;2;low;small;s;0.5575649738311768
pc;da;male;33;size;10;3;high;big;k;0.38762712478637695
pc;da;male;33;size;10;4;low;big;s;0.33965396881103516
pc;da;male;33;size;10;5;low;big;s;0.4183368682861328
pc;da;male;33;size;10;6;high;small;k;0.35952115058898926
pc;da;male;33;size;10;7;high;big;k;0.3790140151977539
pc;da;male;33;size;10;8;high;small;k;0.33370184898376465
pc;da;male;33;size;10;9;low;small;k;0.31363821029663086
pc;da;male;33;size;10;10;high;big;s;0.3004789352416992
pc;da;male;33;size;10;11;low;small;s;0.4056060314178467
pc;da;male;33;size;10;12;high;small;k;0.34422802925109863
pc;da;male;33;size;10;13;low;small;s;0.3072810173034668
pc;da;male;33;size;10;14;high;big;k;0.3183300495147705
pc;da;male;33;size;10;15;low;small;s;0.3613159656524658
pc;da;male;33;size;10;16;low;big;s;0.6075699329376221
pc;da;male;33;size;11;1;low;big;s;0.36238980293273926
pc;da;male;33;size;11;2;low;big;s;0.2544059753417969
pc;da;male;33;size;11;3;high;small;k;0.4812021255493164
pc;da;male;33;size;11;4;high;big;k;0.3939239978790283
pc;da;male;33;size;11;5;low;small;s;0.43152403831481934
pc;da;male;33;size;11;6;high;big;k;0.3805198669433594
pc;da;male;33;size;11;7;low;big;s;0.3905601501464844
pc;da;male;33;size;11;8;low;big;s;0.4365658760070801
pc;da;male;33;size;11;9;high;big;k;0.40581488609313965
pc;da;male;33;size;11;10;high;small;k;0.28232502937316895
pc;da;male;33;size;11;11;low;small;s;0.3624579906463623
pc;da;male;33;size;11;12;high;small;k;0.32057714462280273
pc;da;male;33;size;11;13;high;big;k;0.5145430564880371
pc;da;male;33;size;11;14;high;small;s;0.2925388813018799
pc;da;male;33;size;11;15;low;small;s;0.5228140354156494
pc;da;male;33;size;11;16;low;small;s;0.7503931522369385
pc;da;male;33;height;12;1;low;low;s;0.35202908515930176
pc;da;male;33;height;12;2;low;high;s;0.3210940361022949
pc;da;male;33;height;12;3;high;high;k;0.3375999927520752
pc;da;male;33;height;12;4;high;high;k;0.2686641216278076
pc;da;male;33;height;12;5;high;low;s;0.31941699981689453
pc;da;male;33;height;12;6;high;low;k;0.3290541172027588
pc;da;male;33;height;12;7;low;high;s;0.4083590507507324
pc;da;male;33;height;12;8;high;low;k;0.33475804328918457
pc;da;male;33;height;12;9;low;low;s;0.35612010955810547
pc;da;male;33;height;12;10;high;high;k;0.32068419456481934
pc;da;male;33;height;12;11;low;low;s;0.35945916175842285
pc;da;male;33;height;12;12;low;high;s;0.42363810539245605
pc;da;male;33;height;12;13;low;high;s;0.38375091552734375
pc;da;male;33;height;12;14;high;high;k;0.705146074295044
pc;da;male;33;height;12;15;low;low;s;0.6292510032653809
pc;da;male;33;height;12;16;high;low;k;0.655087947845459
pc;da;male;33;size;13;1;high;small;k;0.5889370441436768
pc;da;male;33;size;13;2;high;big;k;0.24094295501708984
pc;da;male;33;size;13;3;low;big;s;0.5222420692443848
pc;da;male;33;size;13;4;high;small;k;0.2506709098815918
pc;da;male;33;size;13;5;low;small;k;0.4578211307525635
pc;da;male;33;size;13;6;high;small;k;0.4483640193939209
pc;da;male;33;size;13;7;high;small;s;0.33608198165893555
pc;da;male;33;size;13;8;high;small;k;0.30634212493896484
pc;da;male;33;size;13;9;low;big;s;0.5464348793029785
pc;da;male;33;size;13;10;low;big;s;0.4736170768737793
pc;da;male;33;size;13;11;high;big;k;0.3114769458770752
pc;da;male;33;size;13;12;low;small;k;0.2761538028717041
pc;da;male;33;size;13;13;low;big;s;0.4727180004119873
pc;da;male;33;size;13;14;low;small;s;0.3458671569824219
pc;da;male;33;size;13;15;high;big;k;0.28194618225097656
pc;da;male;33;size;13;16;low;big;s;0.44370102882385254
pc;da;male;33;size;14;1;low;big;s;0.37656188011169434
pc;da;male;33;size;14;2;high;big;k;0.2662041187286377
pc;da;male;33;size;14;3;low;small;s;0.27962589263916016
pc;da;male;33;size;14;4;high;small;k;0.28282785415649414
pc;da;male;33;size;14;5;high;big;k;0.4223010540008545
pc;da;male;33;size;14;6;high;big;k;0.33591508865356445
pc;da;male;33;size;14;7;low;small;s;0.3349900245666504
pc;da;male;33;size;14;8;low;small;s;0.3848710060119629
pc;da;male;33;size;14;9;low;big;s;0.5568809509277344
pc;da;male;33;size;14;10;high;small;k;0.4251430034637451
pc;da;male;33;size;14;11;high;big;k;0.5091009140014648
pc;da;male;33;size;14;12;low;big;s;0.47226905822753906
pc;da;male;33;size;14;13;low;small;s;0.38414597511291504
pc;da;male;33;size;14;14;low;small;s;0.3910050392150879
pc;da;male;33;size;14;15;high;small;k;0.2970550060272217
pc;da;male;33;size;14;16;high;big;k;0.33994197845458984
pc;da;male;33;size;15;1;high;small;k;0.6039130687713623
pc;da;male;33;size;15;2;high;big;k;0.38828611373901367
pc;da;male;33;size;15;3;high;big;k;0.39810991287231445
pc;da;male;33;size;15;4;low;small;s;0.3568739891052246
pc;da;male;33;size;15;5;low;big;s;0.3771798610687256
pc;da;male;33;size;15;6;low;small;s;0.3748040199279785
pc;da;male;33;size;15;7;low;small;s;0.3387911319732666
pc;da;male;33;size;15;8;low;big;s;0.2702760696411133
pc;da;male;33;size;15;9;high;big;k;0.33592987060546875
pc;da;male;33;size;15;10;high;big;k;0.35448503494262695
pc;da;male;33;size;15;11;low;small;s;0.3859379291534424
pc;da;male;33;size;15;12;low;small;s;0.33801889419555664
pc;da;male;33;size;15;13;high;big;k;0.4018518924713135
pc;da;male;33;size;15;14;low;small;s;0.37479305267333984
pc;da;male;33;size;15;15;high;small;k;0.24075818061828613
pc;da;male;33;size;15;16;high;big;s;0.32409214973449707
pc;da;male;33;size;16;1;high;small;k;0.36517810821533203
pc;da;male;33;size;16;2;high;small;k;0.270704984664917
pc;da;male;33;size;16;3;high;big;k;0.6350209712982178
pc;da;male;33;size;16;4;low;small;s;0.4299449920654297
pc;da;male;33;size;16;5;low;big;s;0.41900086402893066
pc;da;male;33;size;16;6;low;small;s;0.3231790065765381
pc;da;male;33;size;16;7;low;small;s;0.3796508312225342
pc;da;male;33;size;16;8;high;big;k;0.3186638355255127
pc;da;male;33;size;16;9;low;big;s;0.3878138065338135
pc;da;male;33;size;16;10;high;big;k;0.2698960304260254
pc;da;male;33;size;16;11;high;small;s;0.273514986038208
pc;da;male;33;size;16;12;low;small;s;0.35079288482666016
pc;da;male;33;size;16;13;high;big;k;0.23783493041992188
pc;da;male;33;size;16;14;low;big;s;0.3099980354309082
pc;da;male;33;size;16;15;low;big;s;0.56620192527771
pc;da;male;33;size;16;16;high;small;k;0.3233060836791992
pc;da;male;33;height;17;1;high;low;k;0.49485301971435547
pc;da;male;33;height;17;2;low;low;s;0.3941059112548828
pc;da;male;33;height;17;3;low;low;s;0.4653439521789551
pc;da;male;33;height;17;4;low;high;s;0.3867771625518799
pc;da;male;33;height;17;5;high;high;k;0.338306188583374
pc;da;male;33;height;17;6;high;high;k;0.2567319869995117
pc;da;male;33;height;17;7;high;high;s;0.5634820461273193
pc;da;male;33;height;17;8;low;low;s;0.849694013595581
pc;da;male;33;height;17;9;low;low;s;0.3837599754333496
pc;da;male;33;height;17;10;low;high;s;0.5774619579315186
pc;da;male;33;height;17;11;high;low;k;0.3806440830230713
pc;da;male;33;height;17;12;high;high;k;0.3456149101257324
pc;da;male;33;height;17;13;high;high;k;0.3258850574493408
pc;da;male;33;height;17;14;high;low;k;0.25772809982299805
pc;da;male;33;height;17;15;low;low;s;0.38057684898376465
pc;da;male;33;height;17;16;low;high;k;0.368527889251709
pc;da;male;33;height;18;1;high;low;k;0.46463918685913086
pc;da;male;33;height;18;2;high;low;k;0.24233293533325195
pc;da;male;33;height;18;3;low;low;s;0.2851729393005371
pc;da;male;33;height;18;4;low;high;s;0.24906206130981445
pc;da;male;33;height;18;5;high;low;k;0.28068089485168457
pc;da;male;33;height;18;6;high;low;k;0.2800450325012207
pc;da;male;33;height;18;7;low;high;s;0.24467802047729492
pc;da;male;33;height;18;8;high;high;s;0.21477103233337402
pc;da;male;33;height;18;9;high;low;k;0.8459749221801758
pc;da;male;33;height;18;10;high;high;k;0.5756268501281738
pc;da;male;33;height;18;11;high;low;s;0.5983700752258301
pc;da;male;33;height;18;12;low;high;s;0.5046961307525635
pc;da;male;33;height;18;13;low;high;s;0.6354260444641113
pc;da;male;33;height;18;14;low;low;s;0.7220489978790283
pc;da;male;33;height;18;15;low;high;k;0.3981339931488037
pc;da;male;33;height;18;16;low;high;s;0.4036109447479248
pc;da;male;33;height;19;1;high;high;k;0.2931191921234131
pc;da;male;33;height;19;2;low;low;s;0.8695218563079834
pc;da;male;33;height;19;3;low;high;s;0.7610089778900146
pc;da;male;33;height;19;4;low;high;s;0.6155550479888916
pc;da;male;33;height;19;5;low;low;s;0.3328220844268799
pc;da;male;33;height;19;6;high;low;k;0.6176111698150635
pc;da;male;33;height;19;7;high;high;k;0.4137740135192871
pc;da;male;33;height;19;8;high;high;k;0.3953399658203125
pc;da;male;33;height;19;9;low;low;s;0.521608829498291
pc;da;male;33;height;19;10;high;low;k;0.4944138526916504
pc;da;male;33;height;19;11;high;low;k;0.43105411529541016
pc;da;male;33;height;19;12;high;high;s;0.5070638656616211
pc;da;male;33;height;19;13;low;high;s;0.3549809455871582
pc;da;male;33;height;19;14;low;low;s;0.5747690200805664
pc;da;male;33;height;19;15;low;low;s;0.8858039379119873
pc;da;male;33;height;19;16;high;high;k;0.3079991340637207
pc;da;male;33;height;20;1;low;low;s;0.33516716957092285
pc;da;male;33;height;20;2;low;low;s;0.3000941276550293
pc;da;male;33;height;20;3;high;high;k;0.3095731735229492
pc;da;male;33;height;20;4;low;low;s;0.3219258785247803
pc;da;male;33;height;20;5;low;low;s;0.6550390720367432
pc;da;male;33;height;20;6;low;low;s;0.4816889762878418
pc;da;male;33;height;20;7;high;high;k;0.3336758613586426
pc;da;male;33;height;20;8;low;high;s;0.5790369510650635
pc;da;male;33;height;20;9;high;high;k;0.5597329139709473
pc;da;male;33;height;20;10;high;high;k;0.33307695388793945
pc;da;male;33;height;20;11;low;low;s;0.32198214530944824
pc;da;male;33;height;20;12;high;low;k;0.34749317169189453
pc;da;male;33;height;20;13;high;high;k;0.3072988986968994
pc;da;male;33;height;20;14;high;low;s;0.29070305824279785
pc;da;male;33;height;20;15;low;high;s;0.4694399833679199
pc;da;male;33;height;20;16;high;high;s;0.4081559181213379
