participant;language;gender;age;condition;block;trial;sound;visual;key;RT
vc2;da;male;63;height;1;1;high;high;s;1.9679019451141357
vc2;da;male;63;height;1;2;high;low;k;1.6054389476776123
vc2;da;male;63;height;1;3;low;high;s;0.8289768695831299
vc2;da;male;63;height;1;4;low;high;s;0.7073709964752197
vc2;da;male;63;height;1;5;low;high;s;0.5700910091400146
vc2;da;male;63;height;1;6;high;high;k;0.7450211048126221
vc2;da;male;63;height;1;7;low;low;s;0.9346919059753418
vc2;da;male;63;height;1;8;high;low;k;0.3699519634246826
vc2;da;male;63;height;1;9;low;high;s;1.0334081649780273
vc2;da;male;63;height;1;10;low;high;s;0.9176361560821533
vc2;da;male;63;height;1;11;low;low;s;0.6903769969940186
vc2;da;male;63;height;1;12;low;low;s;0.9091160297393799
vc2;da;male;63;height;1;13;high;low;k;0.656635046005249
vc2;da;male;63;height;1;14;high;low;k;0.6099040508270264
vc2;da;male;63;height;1;15;high;low;k;0.613029956817627
vc2;da;male;63;height;1;16;high;high;k;0.5958099365234375
vc2;da;male;63;height;2;1;low;high;s;0.7052030563354492
vc2;da;male;63;height;2;2;high;low;k;0.40267491340637207
vc2;da;male;63;height;2;3;high;high;s;0.4669361114501953
vc2;da;male;63;height;2;4;high;high;s;0.5024580955505371
vc2;da;male;63;height;2;5;low;low;k;0.48729705810546875
vc2;da;male;63;height;2;6;low;low;k;0.3021252155303955
vc2;da;male;63;height;2;7;low;high;k;0.3160269260406494
vc2;da;male;63;height;2;8;low;high;k;0.2774009704589844
vc2;da;male;63;height;2;9;high;low;s;0.505702018737793
vc2;da;male;63;height;2;10;high;low;s;0.40935683250427246
vc2;da;male;63;height;2;11;low;high;k;0.5661129951477051
vc2;da;male;63;height;2;12;high;low;s;0.3973078727722168
vc2;da;male;63;height;2;13;low;high;k;0.5838019847869873
vc2;da;male;63;height;2;14;high;high;s;0.5768780708312988
vc2;da;male;63;height;2;15;low;low;s;5.733802795410156
vc2;da;male;63;height;2;16;high;low;k;4.111647844314575
vc2;da;male;63;size;3;1;high;big;k;0.852139949798584
vc2;da;male;63;size;3;2;low;small;s;0.6177830696105957
vc2;da;male;63;size;3;3;low;big;s;0.6557021141052246
vc2;da;male;63;size;3;4;low;big;s;0.5575811862945557
vc2;da;male;63;size;3;5;low;small;s;1.1125798225402832
vc2;da;male;63;size;3;6;high;small;k;0.7999930381774902
vc2;da;male;63;size;3;7;low;small;s;0.7308580875396729
vc2;da;male;63;size;3;8;low;big;s;0.9840750694274902
vc2;da;male;63;size;3;9;high;big;k;0.4800379276275635
vc2;da;male;63;size;3;10;high;big;k;3.062380075454712
vc2;da;male;63;size;3;11;high;small;k;0.573760986328125
vc2;da;male;63;size;3;12;high;big;k;0.9538099765777588
vc2;da;male;63;size;3;13;low;small;s;0.5583219528198242
vc2;da;male;63;size;3;14;low;big;s;0.6097021102905273
vc2;da;male;63;size;3;15;high;small;k;0.5033159255981445
vc2;da;male;63;size;3;16;high;small;k;0.6394171714782715
vc2;da;male;63;height;4;1;low;low;s;0.7496511936187744
vc2;da;male;63;height;4;2;low;low;s;0.4602060317993164
vc2;da;male;63;height;4;3;low;low;s;0.3153829574584961
vc2;da;male;63;height;4;4;high;low;k;0.5294680595397949
vc2;da;male;63;height;4;5;low;low;s;0.5116651058197021
vc2;da;male;63;height;4;6;high;high;k;0.5263359546661377
vc2;da;male;63;height;4;7;high;low;k;1.3659789562225342
vc2;da;male;63;height;4;8;low;low;s;0.3558931350708008
vc2;da;male;63;height;4;9;high;high;k;0.600836992263794
vc2;da;male;63;height;4;10;high;high;k;1.2184679508209229
vc2;da;male;63;height;4;11;low;high;s;0.8461439609527588
vc2;da;male;63;height;4;12;low;high;s;0.5977671146392822
vc2;da;male;63;height;4;13;high;high;k;0.6144869327545166
vc2;da;male;63;height;4;14;high;low;k;0.6287682056427002
vc2;da;male;63;height;4;15;low;high;s;0.48909592628479004
vc2;da;male;63;height;4;16;high;high;k;0.6414568424224854
vc2;da;male;63;height;5;1;low;low;s;1.5602190494537354
vc2;da;male;63;height;5;2;low;high;s;0.5057308673858643
vc2;da;male;63;height;5;3;low;low;s;0.33883213996887207
vc2;da;male;63;height;5;4;high;high;k;0.30434298515319824
vc2;da;male;63;height;5;5;low;low;s;1.5900750160217285
vc2;da;male;63;height;5;6;low;high;s;0.6590149402618408
vc2;da;male;63;height;5;7;high;high;k;0.3610248565673828
vc2;da;male;63;height;5;8;low;high;s;0.6520590782165527
vc2;da;male;63;height;5;9;high;low;k;0.8239412307739258
vc2;da;male;63;height;5;10;high;low;k;0.60807204246521
vc2;da;male;63;height;5;11;high;low;k;0.6754190921783447
vc2;da;male;63;height;5;12;high;high;k;0.5720481872558594
vc2;da;male;63;height;5;13;high;low;k;0.5340189933776855
vc2;da;male;63;height;5;14;low;high;s;0.2912111282348633
vc2;da;male;63;height;5;15;high;low;k;0.47008299827575684
vc2;da;male;63;height;5;16;low;high;s;0.6917679309844971
vc2;da;male;63;height;6;1;high;low;s;0.7313520908355713
vc2;da;male;63;height;6;2;high;high;k;0.5210800170898438
vc2;da;male;63;height;6;3;high;high;k;0.4174787998199463
vc2;da;male;63;height;6;4;high;low;k;0.723646879196167
vc2;da;male;63;height;6;5;low;high;s;0.4477369785308838
vc2;da;male;63;height;6;6;low;low;s;0.6543569564819336
vc2;da;male;63;height;6;7;low;low;s;0.5677440166473389
vc2;da;male;63;height;6;8;high;high;k;0.4353339672088623
vc2;da;male;63;height;6;9;high;low;k;1.1036131381988525
vc2;da;male;63;height;6;10;high;low;k;0.49091196060180664
vc2;da;male;63;height;6;11;low;low;s;0.8093669414520264
vc2;da;male;63;height;6;12;high;high;k;0.5200011730194092
vc2;da;male;63;height;6;13;low;low;s;1.2207791805267334
vc2;da;male;63;height;6;14;low;high;k;0.38848400115966797
vc2;da;male;63;height;6;15;low;high;s;0.825908899307251
vc2;da;male;63;height;6;16;low;high;s;0.8681330680847168
vc2;da;male;63;size;7;1;high;big;k;1.161017894744873
vc2;da;male;63;size;7;2;low;big;s;0.6665089130401611
vc2;da;male;63;size;7;3;high;big;k;0.7435619831085205
vc2;da;male;63;size;7;4;low;small;s;0.9990170001983643
vc2;da;male;63;size;7;5;high;big;k;0.6857450008392334
vc2;da;male;63;size;7;6;high;big;s;0.3323338031768799
vc2;da;male;63;size;7;7;low;big;s;1.2736330032348633
vc2;da;male;63;size;7;8;low;small;s;0.7205719947814941
vc2;da;male;63;size;7;9;low;small;s;1.698850154876709
vc2;da;male;63;size;7;10;high;small;k;0.49687886238098145
vc2;da;male;63;size;7;11;high;small;k;0.6972801685333252
vc2;da;male;63;size;7;12;low;small;s;0.8395440578460693
vc2;da;male;63;size;7;13;high;small;k;0.9437961578369141
vc2;da;male;63;size;7;14;high;small;k;1.037696123123169
vc2;da;male;63;size;7;15;low;big;s;0.5911710262298584
vc2;da;male;63;size;7;16;low;big;s;0.9042191505432129
vc2;da;male;63;height;8;1;high;high;k;0.5891461372375488
vc2;da;male;63;height;8;2;high;high;k;0.31208109855651855
vc2;da;male;63;height;8;3;low;high;s;0.6356229782104492
vc2;da;male;63;height;8;4;high;low;k;0.5771138668060303
vc2;da;male;63;height;8;5;low;high;s;1.4071810245513916
vc2;da;male;63;height;8;6;low;high;s;1.5225770473480225
vc2;da;male;63;height;8;7;high;low;k;0.6579229831695557
vc2;da;male;63;height;8;8;high;low;k;0.6092369556427002
vc2;da;male;63;height;8;9;high;high;k;0.652850866317749
vc2;da;male;63;height;8;10;low;low;s;0.5423681735992432
vc2;da;male;63;height;8;11;low;high;s;0.49930691719055176
vc2;da;male;63;height;8;12;high;low;k;1.1062490940093994
vc2;da;male;63;height;8;13;low;low;s;0.5307369232177734
vc2;da;male;63;height;8;14;low;low;s;0.8173129558563232
vc2;da;male;63;height;8;15;low;low;s;0.83921217918396
vc2;da;male;63;height;8;16;high;high;k;0.5187430381774902
vc2;da;male;63;height;9;1;high;low;k;0.8139898777008057
vc2;da;male;63;height;9;2;low;low;s;0.7341969013214111
vc2;da;male;63;height;9;3;high;high;k;0.8966240882873535
vc2;da;male;63;height;9;4;high;low;k;1.3520100116729736
vc2;da;male;63;height;9;5;low;high;s;0.5268468856811523
vc2;da;male;63;height;9;6;high;high;k;0.9139740467071533
vc2;da;male;63;height;9;7;high;high;k;0.6019999980926514
vc2;da;male;63;height;9;8;low;low;s;0.6335020065307617
vc2;da;male;63;height;9;9;low;high;s;0.9606270790100098
vc2;da;male;63;height;9;10;low;high;s;0.48909497261047363
vc2;da;male;63;height;9;11;high;low;k;0.9098010063171387
vc2;da;male;63;height;9;12;low;high;s;1.0872981548309326
vc2;da;male;63;height;9;13;high;low;k;1.562333106994629
vc2;da;male;63;height;9;14;low;low;s;1.2417950630187988
vc2;da;male;63;height;9;15;high;high;k;0.9430830478668213
vc2;da;male;63;height;9;16;low;low;s;0.9491121768951416
vc2;da;male;63;size;10;1;high;small;k;0.7395720481872559
vc2;da;male;63;size;10;2;high;small;k;0.6377029418945312
vc2;da;male;63;size;10;3;low;big;s;0.4927051067352295
vc2;da;male;63;size;10;4;low;small;s;0.5151450634002686
vc2;da;male;63;size;10;5;low;small;s;0.5557861328125
vc2;da;male;63;size;10;6;high;small;k;0.43669700622558594
vc2;da;male;63;size;10;7;low;small;s;0.9846570491790771
vc2;da;male;63;size;10;8;high;big;k;0.7631840705871582
vc2;da;male;63;size;10;9;low;big;s;1.5096049308776855
vc2;da;male;63;size;10;10;high;small;k;1.1375319957733154
vc2;da;male;63;size;10;11;low;big;s;1.2237679958343506
vc2;da;male;63;size;10;12;low;small;s;0.8539741039276123
vc2;da;male;63;size;10;13;high;big;k;0.7792448997497559
vc2;da;male;63;size;10;14;low;big;s;0.9931271076202393
vc2;da;male;63;size;10;15;high;big;k;1.6614420413970947
vc2;da;male;63;size;10;16;high;big;k;1.023015022277832
vc2;da;male;63;size;11;1;high;big;k;0.657721996307373
vc2;da;male;63;size;11;2;high;big;k;0.5883150100708008
vc2;da;male;63;size;11;3;high;big;k;0.5774440765380859
vc2;da;male;63;size;11;4;high;small;k;0.8427917957305908
vc2;da;male;63;size;11;5;high;big;k;0.6971690654754639
vc2;da;male;63;size;11;6;low;big;s;0.4532949924468994
vc2;da;male;63;size;11;7;low;big;s;0.37179017066955566
vc2;da;male;63;size;11;8;low;small;s;0.22729706764221191
vc2;da;male;63;size;11;9;high;big;k;0.44510698318481445
vc2;da;male;63;size;11;10;high;small;k;0.5505459308624268
vc2;da;male;63;size;11;11;high;small;k;0.6119019985198975
vc2;da;male;63;size;11;12;low;small;s;0.5853168964385986
vc2;da;male;63;size;11;13;low;small;s;0.5222949981689453
vc2;da;male;63;size;11;14;low;small;s;0.8410699367523193
vc2;da;male;63;size;11;15;low;big;s;0.7711050510406494
vc2;da;male;63;size;11;16;low;small;s;0.8033020496368408
vc2;da;male;63;size;12;1;low;small;s;0.9475548267364502
vc2;da;male;63;size;12;2;high;small;k;0.5740139484405518
vc2;da;male;63;size;12;3;low;small;s;1.119006872177124
vc2;da;male;63;size;12;4;high;big;k;1.1173300743103027
vc2;da;male;63;size;12;5;high;big;k;0.6013650894165039
vc2;da;male;63;size;12;6;low;small;s;0.5632829666137695
vc2;da;male;63;size;12;7;high;big;k;0.8183929920196533
vc2;da;male;63;size;12;8;low;small;s;1.093808889389038
vc2;da;male;63;size;12;9;high;small;k;0.5905258655548096
vc2;da;male;63;size;12;10;low;small;s;1.2579472064971924
vc2;da;male;63;size;12;11;low;big;s;0.8065550327301025
vc2;da;male;63;size;12;12;low;big;s;0.8636500835418701
vc2;da;male;63;size;12;13;high;big;k;0.46426987648010254
vc2;da;male;63;size;12;14;high;big;k;0.6708939075469971
vc2;da;male;63;size;12;15;low;big;s;0.8684649467468262
vc2;da;male;63;size;12;16;high;small;k;1.7766871452331543
vc2;da;male;63;size;13;1;high;small;k;0.7040469646453857
vc2;da;male;63;size;13;2;low;small;s;0.47773313522338867
vc2;da;male;63;size;13;3;high;small;k;0.34616899490356445
vc2;da;male;63;size;13;4;low;big;s;0.5470800399780273
vc2;da;male;63;size;13;5;low;small;s;0.7329180240631104
vc2;da;male;63;size;13;6;high;small;s;0.8910250663757324
vc2;da;male;63;size;13;7;low;big;s;1.8360838890075684
vc2;da;male;63;size;13;8;high;big;k;0.4008760452270508
vc2;da;male;63;size;13;9;low;big;s;1.285696029663086
vc2;da;male;63;size;13;10;low;small;s;1.0895271301269531
vc2;da;male;63;size;13;11;high;big;k;0.5930120944976807
vc2;da;male;63;size;13;12;low;small;s;0.9657959938049316
vc2;da;male;63;size;13;13;high;big;k;1.0960159301757812
vc2;da;male;63;size;13;14;low;small;s;1.6662309169769287
vc2;da;male;63;size;13;15;high;big;k;0.8746490478515625
vc2;da;male;63;size;13;16;high;big;k;1.2166221141815186
vc2;da;male;63;size;14;1;high;small;k;0.6804850101470947
vc2;da;male;63;size;14;2;high;small;k;0.9904718399047852
vc2;da;male;63;size;14;3;high;big;k;1.0059971809387207
vc2;da;male;63;size;14;4;low;big;s;0.5292308330535889
vc2;da;male;63;size;14;5;high;big;k;0.8451900482177734
vc2;da;male;63;size;14;6;low;big;s;0.30445289611816406
vc2;da;male;63;size;14;7;low;small;s;0.7477419376373291
vc2;da;male;63;size;14;8;low;small;s;0.5805990695953369
vc2;da;male;63;size;14;9;high;small;k;0.6839988231658936
vc2;da;male;63;size;14;10;low;small;s;1.810399055480957
vc2;da;male;63;size;14;11;low;small;s;1.5791921615600586
vc2;da;male;63;size;14;12;low;big;s;0.8177471160888672
vc2;da;male;63;size;14;13;high;big;k;0.4749631881713867
vc2;da;male;63;size;14;14;high;big;k;0.6768910884857178
vc2;da;male;63;size;14;15;high;small;k;0.5425980091094971
vc2;da;male;63;size;14;16;low;big;s;0.932387113571167
vc2;da;male;63;height;15;1;high;high;k;1.7207679748535156
vc2;da;male;63;height;15;2;low;high;s;0.9290468692779541
vc2;da;male;63;height;15;3;high;low;k;1.9695920944213867
vc2;da;male;63;height;15;4;low;low;s;0.7602081298828125
vc2;da;male;63;height;15;5;high;high;k;1.0083038806915283
vc2;da;male;63;height;15;6;high;low;k;1.1020798683166504
vc2;da;male;63;height;15;7;low;low;s;0.4300839900970459
vc2;da;male;63;height;15;8;high;low;k;0.8675980567932129
vc2;da;male;63;height;15;9;low;low;s;1.7087671756744385
vc2;da;male;63;height;15;10;low;high;s;1.5280160903930664
vc2;da;male;63;height;15;11;high;high;k;0.5210840702056885
vc2;da;male;63;height;15;12;high;low;k;0.5352067947387695
vc2;da;male;63;height;15;13;low;low;s;1.883354902267456
vc2;da;male;63;height;15;14;low;high;s;0.5838420391082764
vc2;da;male;63;height;15;15;high;high;k;0.5333390235900879
vc2;da;male;63;height;15;16;low;high;s;1.0861668586730957
vc2;da;male;63;height;16;1;high;low;k;0.7511849403381348
vc2;da;male;63;height;16;2;low;low;s;0.6537220478057861
vc2;da;male;63;height;16;3;high;high;k;1.345625877380371
vc2;da;male;63;height;16;4;low;high;s;1.028353214263916
vc2;da;male;63;height;16;5;low;high;s;0.9418668746948242
vc2;da;male;63;height;16;6;high;low;k;0.6056439876556396
vc2;da;male;63;height;16;7;high;low;k;0.8427169322967529
vc2;da;male;63;height;16;8;low;high;s;0.7979049682617188
vc2;da;male;63;height;16;9;low;low;s;0.9544401168823242
vc2;da;male;63;height;16;10;high;low;k;0.961932897567749
vc2;da;male;63;height;16;11;high;high;k;1.1158761978149414
vc2;da;male;63;height;16;12;low;high;s;1.2129859924316406
vc2;da;male;63;height;16;13;low;low;s;0.6017251014709473
vc2;da;male;63;height;16;14;low;high;s;0.5475301742553711
vc2;da;male;63;height;16;15;high;high;k;0.49699997901916504
vc2;da;male;63;height;16;16;high;low;k;0.6143529415130615
vc2;da;male;63;size;17;1;low;big;k;0.5647900104522705
vc2;da;male;63;size;17;2;high;big;s;0.6096251010894775
vc2;da;male;63;size;17;3;high;big;k;0.9144680500030518
vc2;da;male;63;size;17;4;low;big;s;1.2434589862823486
vc2;da;male;63;size;17;5;low;small;s;0.9455900192260742
vc2;da;male;63;size;17;6;low;small;s;1.0022411346435547
vc2;da;male;63;size;17;7;low;small;s;0.8015720844268799
vc2;da;male;63;size;17;8;low;small;s;1.0340290069580078
vc2;da;male;63;size;17;9;high;big;k;0.502068042755127
vc2;da;male;63;size;17;10;high;big;k;0.5571150779724121
vc2;da;male;63;size;17;11;high;small;k;0.6070411205291748
vc2;da;male;63;size;17;12;high;big;k;0.7279791831970215
vc2;da;male;63;size;17;13;high;small;k;0.8370020389556885
vc2;da;male;63;size;17;14;high;big;k;0.829679012298584
vc2;da;male;63;size;17;15;low;small;s;0.48917198181152344
vc2;da;male;63;size;17;16;low;small;s;0.3830220699310303
vc2;da;male;63;height;18;1;high;low;k;0.7221469879150391
vc2;da;male;63;height;18;2;low;low;s;0.49567699432373047
vc2;da;male;63;height;18;3;low;high;s;1.07218599319458
vc2;da;male;63;height;18;4;low;low;s;0.8246579170227051
vc2;da;male;63;height;18;5;high;low;k;0.487354040145874
vc2;da;male;63;height;18;6;high;high;k;0.5567281246185303
vc2;da;male;63;height;18;7;high;high;k;0.6007459163665771
vc2;da;male;63;height;18;8;high;high;k;0.6109440326690674
vc2;da;male;63;height;18;9;high;high;k;0.5304679870605469
vc2;da;male;63;height;18;10;high;high;k;0.721541166305542
vc2;da;male;63;height;18;11;low;low;s;0.25537896156311035
vc2;da;male;63;height;18;12;low;low;s;0.40872716903686523
vc2;da;male;63;height;18;13;low;high;s;0.509160041809082
vc2;da;male;63;height;18;14;low;low;s;0.28138303756713867
vc2;da;male;63;height;18;15;low;high;s;0.4573678970336914
vc2;da;male;63;height;18;16;high;low;k;0.48534107208251953
vc2;da;male;63;size;19;1;low;small;k;0.6984560489654541
vc2;da;male;63;size;19;2;high;big;k;1.8941059112548828
vc2;da;male;63;size;19;3;high;small;k;0.8874361515045166
vc2;da;male;63;size;19;4;low;big;s;0.794464111328125
vc2;da;male;63;size;19;5;high;small;k;0.7806968688964844
vc2;da;male;63;size;19;6;high;big;k;0.5042910575866699
vc2;da;male;63;size;19;7;high;big;k;0.7462191581726074
vc2;da;male;63;size;19;8;low;big;s;0.7579050064086914
vc2;da;male;63;size;19;9;low;small;s;0.3682668209075928
vc2;da;male;63;size;19;10;low;small;s;0.3362720012664795
vc2;da;male;63;size;19;11;low;big;s;0.5993039608001709
vc2;da;male;63;size;19;12;low;small;s;0.6986579895019531
vc2;da;male;63;size;19;13;high;small;k;0.6249558925628662
vc2;da;male;63;size;19;14;high;small;k;0.7654318809509277
vc2;da;male;63;size;19;15;low;big;s;0.5123190879821777
vc2;da;male;63;size;19;16;high;big;k;0.5182139873504639
vc2;da;male;63;size;20;1;low;big;s;0.953131914138794
vc2;da;male;63;size;20;2;high;big;k;0.6679041385650635
vc2;da;male;63;size;20;3;low;big;s;0.5551831722259521
vc2;da;male;63;size;20;4;low;big;s;0.7515730857849121
vc2;da;male;63;size;20;5;high;small;k;0.48336005210876465
vc2;da;male;63;size;20;6;low;small;s;1.4014720916748047
vc2;da;male;63;size;20;7;low;small;s;0.9293549060821533
vc2;da;male;63;size;20;8;high;big;k;0.6006641387939453
vc2;da;male;63;size;20;9;low;small;s;1.3225719928741455
vc2;da;male;63;size;20;10;high;small;k;0.5654451847076416
vc2;da;male;63;size;20;11;low;small;s;0.8932490348815918
vc2;da;male;63;size;20;12;high;big;k;0.7475948333740234
vc2;da;male;63;size;20;13;low;small;s;1.041429042816162
vc2;da;male;63;size;20;14;high;small;k;0.7272560596466064
vc2;da;male;63;size;20;15;high;big;k;0.8219509124755859
vc2;da;male;63;size;20;16;high;big;k;0.817755937576294
